,onset,duration,run_number,trial_number,task,ext_mot_pos,ext_mot_ver_dir,staircase_num,fix_off_prct,trial_type,exp_mot_ori,direction_report,response_duration,trial_onset,trial_offset,button_press_onset,button_left,button_right,fix_break,motion_onset,motion_offset,fixation_onset,fixation_offset,response_onset,response_offset,trial_duration,fix_check_duration,fixation_duration,response_duration,motion_duration,reaction_time,miss_time_trial,blink_trial,no_saccade_trial,main_sac_trial,innacurate_sac_trial,early_sac_trial,late_sac_trial,sac_x_onset_trial,sac_x_offset_trial,sac_y_onset_trial,sac_y_offset_trial,sac_t_onset_trial,sac_t_offset_trial,sac_dur_trial,sac_vpeak_trial,sac_dist_trial,sac_amp_trial,sac_dist_ang_trial,sac_lat_trial,sac_amp_ang_trial,cor_sac_trial,cor_sac_x_onset_trial,cor_sac_x_offset_trial,cor_sac_y_onset_trial,cor_sac_y_offset_trial,cor_sac_t_onset_trial,cor_sac_t_offset_trial,cor_sac_dur_trial,cor_sac_vpeak_trial,cor_sac_dist_trial,cor_sac_amp_trial,cor_sac_dist_ang_trial,cor_sac_amp_ang_trial
0,7784.561704,3.7244559,1,1,2,1,2,2,5,2,46.00961538,n/a,n/a,7695453.0,7699178.0,0.0,0.0,0.0,7697126.0,7696169.0,7698177.0,7696169.0,7697378.0,7698185.0,7699179.0,3725.0,716.0,1209.0,994.0,2008.0,-7698185.0,0.0,0.0,0.0,0.0,0.0,1.0,0.0,-0.26307644258854074,-10.27036585737103,-0.0692306427864579,-0.0692306427864579,7697114.0,7697176.0,62.0,496.15428164692526,10.007289414782488,11.255849212555882,3.141592653589793,-264.0,-3.109296195030441,0.0,0.0,0.0,0.0,0.0,0.0,0.0,0.0,0.0,0.0,0.0,0.0,0.0
1,7788.302909,3.5077382,1,2,2,2,1,2,2,2,46.00961538,n/a,n/a,7699196.0,7702702.0,0.0,0.0,0.0,7700801.0,7699711.0,7701702.0,7699711.0,7700301.0,7701709.0,7702702.0,3506.0,515.0,590.0,993.0,1991.0,-7701709.0,0.0,0.0,0.0,1.0,0.0,0.0,0.0,-0.2769225711458316,9.411905886818953,-0.7096140885611933,-1.0973056881653591,7700783.0,7700855.0,72.0,395.8395655604368,9.696581957796877,11.075422941984145,0.03999295510451256,482.0,0.06881348224791439,0.0,0.0,0.0,0.0,0.0,0.0,0.0,0.0,0.0,0.0,0.0,0.0,0.0
2,7791.819152,3.5076919,1,3,2,1,2,1,2,2,46.00961538,n/a,n/a,7702709.0,7706218.0,0.0,0.0,0.0,7704102.0,7703225.0,7705218.0,7703225.0,7703818.0,7705225.0,7706218.0,3509.0,516.0,593.0,993.0,1993.0,-7705225.0,0.0,0.0,0.0,1.0,0.0,0.0,0.0,-0.46384530666926704,-10.183827553887957,-0.22499958905598813,-0.4049992603007802,7704078.0,7704147.0,69.0,474.841873757528,9.72164876797628,10.59901527037708,3.123076251521784,260.0,-3.1167692661528763,0.0,0.0,0.0,0.0,0.0,0.0,0.0,0.0,0.0,0.0,0.0,0.0,0.0
3,7795.335132,3.5078382,1,4,2,1,1,2,1,2,46.00961538,n/a,n/a,7706225.0,7709734.0,0.0,0.0,0.0,7707435.0,7706741.0,7708735.0,7706742.0,7707135.0,7708741.0,7709734.0,3509.0,517.0,393.0,993.0,1994.0,-7708741.0,0.0,0.0,0.0,1.0,0.0,0.0,0.0,-0.3115378925390605,-11.128825827923105,-0.44999917811197626,-0.13153822129426843,7707412.0,7707485.0,73.0,497.2391818292021,10.82197466537519,11.867571025482025,-3.1121611545189696,277.0,-3.09695079991277,1.0,-33.26532385889301,-1.394997452147125,18.726888873736858,0.5919219958242157,7708151.0,7708222.0,71.0,12390.031420067455,36.6687159433694,54.4508099388417,0.5173312342064686,0.5587475643198954
4,7798.851306,3.5162415,1,5,2,2,1,2,2,2,46.00961538,n/a,n/a,7709741.0,7713261.0,0.0,0.0,0.0,7711166.0,7710266.0,7712259.0,7710267.0,7710860.0,7712266.0,7713263.0,3520.0,526.0,593.0,997.0,1993.0,-7712266.0,0.0,0.0,0.0,1.0,0.0,0.0,0.0,-0.36692240676822757,8.948060580149683,-0.46730683880859075,-0.294230231842446,7711145.0,7711224.0,79.0,399.23379171150094,9.316590769076907,10.491159275868862,-0.018578315609109317,285.0,0.034321281340569824,0.0,0.0,0.0,0.0,0.0,0.0,0.0,0.0,0.0,0.0,0.0,0.0,0.0
5,7802.384249,3.5076618,1,6,2,1,1,1,5,2,46.00961538,n/a,n/a,7713276.0,7716783.0,0.0,0.0,0.0,7714575.0,7713792.0,7715783.0,7713792.0,7714984.0,7715790.0,7716784.0,3507.0,516.0,1192.0,994.0,1991.0,-7715790.0,0.0,0.0,0.0,0.0,0.0,1.0,0.0,-0.2388457176132789,-11.063056717275972,-0.14192281771223947,-0.01384612855729079,7714549.0,7714626.0,77.0,480.5459170176925,10.824968702196035,11.750041210843577,-3.1297607785017707,-435.0,-3.090310222980865,0.0,0.0,0.0,0.0,0.0,0.0,0.0,0.0,0.0,0.0,0.0,0.0,0.0
6,7805.900374,3.5076923,1,7,2,1,1,1,1,2,46.00961538,n/a,n/a,7716790.0,7720299.0,0.0,0.0,0.0,7718216.0,7717306.0,7719300.0,7717306.0,7717699.0,7719306.0,7720299.0,3509.0,516.0,393.0,993.0,1994.0,-7719306.0,0.0,0.0,0.0,0.0,0.0,0.0,1.0,-0.3911531317434855,-11.20497953498821,-0.5988450601028592,-0.22153805691666445,7718201.0,7718264.0,63.0,455.93122193213577,10.820406741623259,11.620674275823605,-3.106715636842005,502.0,3.098685194213394,0.0,0.0,0.0,0.0,0.0,0.0,0.0,0.0,0.0,0.0,0.0,0.0,0.0
7,7809.41656,3.507674,1,8,2,1,1,2,2,2,46.00961538,n/a,n/a,7720306.0,7723815.0,0.0,0.0,0.0,7721722.0,7720823.0,7722815.0,7720823.0,7721416.0,7722822.0,7723816.0,3509.0,517.0,593.0,994.0,1992.0,-7722822.0,0.0,0.0,0.0,1.0,0.0,0.0,0.0,-0.38423006746484206,-10.824210999662693,-0.5503836101523394,-0.4119223245794236,7721706.0,7721767.0,61.0,455.802355147668,10.440899070111596,11.061880968585283,-3.1283308316533796,290.0,3.109355860241174,0.0,0.0,0.0,0.0,0.0,0.0,0.0,0.0,0.0,0.0,0.0,0.0,0.0
8,7812.93272,3.5078458,1,9,2,2,1,2,3,1,46.00961538,n/a,n/a,7723822.0,7727332.0,0.0,0.0,0.0,7725499.0,7724339.0,7726331.0,7724339.0,7725132.0,7726338.0,7727332.0,3510.0,517.0,793.0,994.0,1992.0,-7726338.0,0.0,0.0,0.0,1.0,0.0,0.0,0.0,-0.16961507482682103,9.834212807816339,-0.10038443204036315,0.031153789253905263,7725474.0,7725542.0,68.0,455.3884938681551,10.004692629421955,11.049839545955628,-0.01314803123837643,342.0,-0.036973737986939655,1.0,-0.16961507482682103,9.834212807816339,-0.10038443204036315,0.031153789253905263,7725474.0,7725542.0,68.0,455.3884938681551,10.004692629421955,11.049839545955628,-0.01314803123837643,-0.036973737986939655
9,7816.448763,3.7244136,1,10,2,1,1,1,2,1,46.00961538,n/a,n/a,7727338.0,7731064.0,0.0,0.0,0.0,7729088.0,7728072.0,7730064.0,7728072.0,7728664.0,7730071.0,7731064.0,3726.0,734.0,592.0,993.0,1992.0,-7730071.0,0.0,0.0,0.0,1.0,0.0,0.0,0.0,-0.4119223245794236,-10.363827225132745,-0.588460463684892,-0.5123067566197868,7729077.0,7729148.0,71.0,492.89301906728025,9.95219626699338,10.49306816246487,-3.1339406290311365,413.0,3.1118984139828836,1.0,-33.26532385889301,1.2149977809023367,18.726888873736858,-0.6923064278645789,7729556.0,7729619.0,63.0,16913.59161631053,39.57268914978459,55.95454504765238,0.5129183691842544,0.6111162033274106
10,7820.181526,3.5077898,1,11,2,2,2,2,1,1,46.00961538,n/a,n/a,7731071.0,7734580.0,0.0,0.0,0.0,7732514.0,7731587.0,7733581.0,7731588.0,7731981.0,7733588.0,7734581.0,3509.0,517.0,393.0,993.0,1994.0,-7733588.0,0.0,0.0,0.0,0.0,0.0,0.0,1.0,-0.28384563542447894,10.052289332593688,-0.40153772816145655,-0.2561533783098934,7732497.0,7732557.0,60.0,427.94433079776354,10.33715737938964,11.541680984216688,-0.01406471216935016,516.0,-0.027595753184144433,0.0,0.0,0.0,0.0,0.0,0.0,0.0,0.0,0.0,0.0,0.0,0.0,0.0
11,7823.697805,3.6826757,1,12,2,1,2,1,5,2,46.00961538,n/a,n/a,7734587.0,7738271.0,0.0,0.0,0.0,7736513.0,7735280.0,7737272.0,7735280.0,7736470.0,7737278.0,7738271.0,3684.0,693.0,1190.0,993.0,1992.0,-7737278.0,0.0,0.0,0.0,1.0,0.0,0.0,0.0,-0.4049992603007802,-11.13228736006243,-0.14538434985156315,0.2976917639817697,7736489.0,7736563.0,74.0,480.693770111794,10.736434530044765,11.898387720438867,-3.1003124711251844,19.0,3.0976489170720267,0.0,0.0,0.0,0.0,0.0,0.0,0.0,0.0,0.0,0.0,0.0,0.0,0.0
12,7827.38881,3.5077797,1,13,2,1,2,1,4,2,46.00961538,n/a,n/a,7738278.0,7741788.0,0.0,0.0,0.0,7740005.0,7738795.0,7740788.0,7738795.0,7739788.0,7740795.0,7741788.0,3510.0,517.0,993.0,993.0,1993.0,-7740795.0,0.0,0.0,0.0,1.0,0.0,0.0,0.0,-0.5607682065703105,-10.588826814188733,0.031153789253905263,0.3634608746289039,7739993.0,7740076.0,83.0,473.72605690121384,10.033563047931697,10.911861175836028,-3.1084670465328186,205.0,-3.0892263417295296,1.0,-1.2496131022955657,-1.2599976987135328,0.2526918461705697,0.2596149104492171,7741197.0,7741219.0,22.0,28.897977496355463,0.012480731619994816,0.147876717814561,-2.5535900500420508,1.002271779063846
13,7830.904949,3.5077906,1,14,2,2,2,2,5,1,46.00961538,n/a,n/a,7741794.0,7745304.0,0.0,0.0,0.0,7743737.0,7742311.0,7744304.0,7742311.0,7743504.0,7744311.0,7745304.0,3510.0,517.0,1193.0,993.0,1993.0,-7744311.0,0.0,0.0,0.0,1.0,0.0,0.0,0.0,-0.5365374815950487,8.32152326293224,0.031153789253905263,0.3011532961210934,7743708.0,7743783.0,75.0,390.8015448299708,8.862174670330296,9.872009287828947,-0.030471222206175957,204.0,0.04524813970964152,1.0,-1.031536577518221,-1.0661518989114498,-0.08307677134374868,0.044999917811196055,7744592.0,7744616.0,24.0,34.05795043386592,0.1326719969701552,0.1563831189673136,-1.8347600504206059,2.0542433283621
14,7834.42121,3.5077284,1,15,2,1,2,1,2,2,46.00961538,n/a,n/a,7745311.0,7748819.0,0.0,0.0,0.0,7746894.0,7745827.0,7747820.0,7745827.0,7746421.0,7747827.0,7748819.0,3508.0,516.0,594.0,992.0,1993.0,-7747827.0,0.0,0.0,0.0,1.0,0.0,0.0,0.0,-0.22153805691666445,-11.634209520264248,0.14192281771223947,-0.10384596417968683,7746882.0,7746919.0,37.0,478.3939552637973,11.415317438619958,11.395612479266545,3.120061252993634,461.0,3.11607403748075,1.0,-11.644594116682216,-10.716903503343682,-0.10730749631901051,0.08307677134374868,7746921.0,7746944.0,23.0,136.21347664155059,0.9470248378210102,1.1258550136891923,-0.20241343888116767,0.2516899717581874
15,7837.937272,3.5078389,1,16,2,2,1,1,3,1,46.00961538,n/a,n/a,7748827.0,7752336.0,0.0,0.0,0.0,7750537.0,7749343.0,7751336.0,7749343.0,7750137.0,7751343.0,7752336.0,3509.0,516.0,794.0,993.0,1993.0,-7751343.0,0.0,0.0,0.0,1.0,0.0,0.0,0.0,-0.6023065922421829,9.854982000652281,0.01384612855729079,-0.28384563542447894,7750516.0,7750592.0,76.0,401.4689226572819,10.461524989284463,11.458661692118513,0.02845970871750455,379.0,0.0565206742346932,1.0,-0.6023065922421829,9.854982000652281,0.01384612855729079,-0.28384563542447894,7750516.0,7750592.0,76.0,401.4689226572819,10.461524989284463,11.458661692118513,0.02845970871750455,0.0565206742346932
16,7841.453445,3.6994327,1,17,2,2,1,2,1,1,46.00961538,n/a,n/a,7752343.0,7756044.0,0.0,0.0,0.0,7753786.0,7753052.0,7755044.0,7753052.0,7753443.0,7755051.0,7756044.0,3701.0,709.0,391.0,993.0,1992.0,-7755051.0,0.0,0.0,0.0,1.0,0.0,0.0,0.0,-0.6161527207994736,8.88921453378119,0.28038410328515523,0.1730766069661447,7753762.0,7753825.0,63.0,387.25393921994026,9.50597294037915,10.691274738982527,0.011288668306802918,319.0,0.04826071428609568,1.0,-33.26532385889301,-1.2288439094596275,18.726888873736858,-0.4880760316445289,7754354.0,7754398.0,44.0,13146.626158552905,37.35707327756667,45.51274084603649,0.5402605884997378,0.7909913071810065
17,7845.161351,3.5077059,1,18,2,2,1,2,1,2,46.00961538,n/a,n/a,7756051.0,7759560.0,0.0,0.0,0.0,7757367.0,7756567.0,7758561.0,7756567.0,7756960.0,7758567.0,7759560.0,3509.0,516.0,393.0,993.0,1994.0,-7758567.0,0.0,0.0,0.0,1.0,0.0,0.0,0.0,-0.418845388858071,9.633443943735614,0.10730749631901051,0.2388457176132789,7757348.0,7757419.0,71.0,427.0333792024832,10.053149910840782,11.395103553869788,-0.01308465266489854,388.0,0.05470653965117438,1.0,-0.418845388858071,9.633443943735614,0.10730749631901051,0.2388457176132789,7757348.0,7757419.0,71.0,427.0333792024832,10.053149910840782,11.395103553869788,-0.01308465266489854,0.05470653965117438
18,7848.677383,3.5078211,1,19,2,2,2,2,4,1,46.00961538,n/a,n/a,7759567.0,7763076.0,0.0,0.0,0.0,7761333.0,7760083.0,7762076.0,7760083.0,7761076.0,7762083.0,7763077.0,3509.0,516.0,993.0,994.0,1993.0,-7762083.0,0.0,0.0,0.0,1.0,0.0,0.0,0.0,-0.4949990959231723,7.407678778150994,0.26307644258854074,0.4084607924401,7761319.0,7761367.0,48.0,374.13070715278127,7.904015067708509,8.741893649248482,-0.018394771242491982,243.0,-0.04396689121776904,1.0,-0.4949990959231723,7.407678778150994,0.26307644258854074,0.4084607924401,7761319.0,7761367.0,48.0,374.13070715278127,7.904015067708509,8.741893649248482,-0.018394771242491982,-0.04396689121776904
19,7852.193535,3.7077808,1,20,2,1,1,1,5,2,46.00961538,n/a,n/a,7763083.0,7766792.0,0.0,0.0,0.0,7765226.0,7763799.0,7765792.0,7763799.0,7764992.0,7765799.0,7766792.0,3709.0,716.0,1193.0,993.0,1993.0,-7765799.0,0.0,0.0,0.0,1.0,0.0,0.0,0.0,-0.3703839389075513,-10.55074996065618,0.08307677134374868,-0.40153772816145655,7765194.0,7765255.0,61.0,488.2563717023203,10.191894011904985,11.029409408997715,3.0940257051406785,202.0,3.065254037856161,0.0,0.0,0.0,0.0,0.0,0.0,0.0,0.0,0.0,0.0,0.0,0.0,0.0
20,7855.909648,3.507825,1,21,2,1,2,2,1,1,46.00961538,n/a,n/a,7766799.0,7770308.0,0.0,0.0,0.0,7768058.0,7767316.0,7769309.0,7767316.0,7767709.0,7769315.0,7770308.0,3509.0,517.0,393.0,993.0,1993.0,-7769315.0,0.0,0.0,0.0,1.0,0.0,0.0,0.0,-0.5157682887591105,-10.969595349514252,0.49153756378385255,-0.4430761138333289,7768040.0,7768102.0,62.0,534.5953846376501,10.495522995190166,11.40400226649703,3.052425748259758,331.0,3.019571904266987,0.0,0.0,0.0,0.0,0.0,0.0,0.0,0.0,0.0,0.0,0.0,0.0,0.0
21,7859.425803,3.5078284,1,22,2,2,1,2,5,2,46.00961538,n/a,n/a,7770315.0,7773824.0,0.0,0.0,0.0,7772331.0,7770832.0,7772825.0,7770832.0,7772024.0,7772831.0,7773825.0,3509.0,517.0,1192.0,994.0,1993.0,-7772831.0,0.0,0.0,0.0,1.0,0.0,0.0,0.0,-0.5919219958242157,9.803059018562438,0.33576861751432235,-0.7511524742330696,7772313.0,7772368.0,55.0,387.130153570282,10.451651914847925,11.749038745445548,0.10418351767469293,289.0,0.10063608205068485,1.0,-0.5919219958242157,9.803059018562438,0.33576861751432235,-0.7511524742330696,7772313.0,7772368.0,55.0,387.130153570282,10.451651914847925,11.749038745445548,0.10418351767469293,0.10063608205068485
22,7862.941962,3.6911477,1,23,2,1,1,2,2,2,46.00961538,n/a,n/a,7773831.0,7777524.0,0.0,0.0,0.0,7775458.0,7774531.0,7776524.0,7774531.0,7775124.0,7776531.0,7777524.0,3693.0,700.0,593.0,993.0,1993.0,-7776531.0,0.0,0.0,0.0,1.0,0.0,0.0,0.0,-0.28384563542447894,-10.450365528615817,0.294230231842446,0.0034615321393236813,7775431.0,7775511.0,80.0,549.2446131631729,10.170677124723912,11.407029986918484,3.112999835280975,307.0,3.0963622833744817,0.0,0.0,0.0,0.0,0.0,0.0,0.0,0.0,0.0,0.0,0.0,0.0,0.0
23,7866.641439,3.5078247,1,24,2,2,2,2,4,1,46.00961538,n/a,n/a,7777531.0,7781040.0,0.0,0.0,0.0,7779397.0,7778047.0,7780040.0,7778047.0,7779040.0,7780047.0,7781041.0,3509.0,516.0,993.0,994.0,1993.0,-7780047.0,0.0,0.0,0.0,1.0,0.0,0.0,0.0,-0.294230231842446,9.086521865722597,0.07269217492578157,0.5953835279635394,7779373.0,7779442.0,69.0,391.19567530179216,9.395302877848664,10.548355689729743,-0.05566200077878834,333.0,-0.0781813336063868,1.0,-33.26532385889301,-0.5053836923411433,18.726888873736858,-0.5919219958242157,7779972.0,7780040.0,68.0,12183.192074496226,38.03196199422178,44.36298968538644,0.53281775481247,2.4060922705026178
24,7870.157601,3.5078363,1,25,2,2,2,2,5,1,46.00961538,n/a,n/a,7781047.0,7784556.0,0.0,0.0,0.0,7783030.0,7781563.0,7783556.0,7781563.0,7782757.0,7783563.0,7784556.0,3509.0,516.0,1194.0,993.0,1993.0,-7783563.0,0.0,0.0,0.0,1.0,0.0,0.0,0.0,-0.4846144995052052,7.7676781206405785,0.11769209273697762,0.15923047840885393,7783007.0,7783063.0,56.0,379.81147765079737,8.252397162400557,9.213545861288067,-0.005033514536390485,250.0,0.035699112679323984,1.0,7.86113948840229,8.009985370393181,0.12461515701562499,0.20423039622005,7783080.0,7783102.0,22.0,27.848068490345078,0.16880071948668937,0.18218316926060144,-0.49116359828623474,-0.6777082925646046
25,7873.673774,3.6827679,1,26,2,1,1,1,5,2,46.00961538,n/a,n/a,7784563.0,7788247.0,0.0,0.0,0.0,7786806.0,7785256.0,7787247.0,7785256.0,7786446.0,7787254.0,7788247.0,3684.0,693.0,1190.0,993.0,1991.0,-7787254.0,0.0,0.0,0.0,1.0,0.0,0.0,0.0,-0.40153772816145655,-9.719982247218686,0.328845553235675,-0.9830751275677012,7786791.0,7786866.0,75.0,491.5869924109171,9.410342402243785,10.771514929151742,3.0017244158451577,345.0,2.9876972655887544,1.0,-0.40153772816145655,-9.719982247218686,0.328845553235675,-0.9830751275677012,7786791.0,7786866.0,75.0,491.5869924109171,9.410342402243785,10.771514929151742,3.0017244158451577,2.9876972655887544
26,7877.364876,3.507979,1,27,2,2,2,1,1,2,46.00961538,n/a,n/a,7788254.0,7791763.0,0.0,0.0,0.0,7789570.0,7788771.0,7790764.0,7788771.0,7789163.0,7790770.0,7791763.0,3509.0,517.0,392.0,993.0,1993.0,-7790770.0,0.0,0.0,0.0,1.0,0.0,0.0,0.0,-0.7407678778150986,9.51921338313796,0.4084607924401,0.4049992603007802,7789550.0,7789632.0,82.0,403.32791529776404,10.259981844882216,11.243550882237649,0.00033738190352797145,387.0,0.05051186716164553,0.0,0.0,0.0,0.0,0.0,0.0,0.0,0.0,0.0,0.0,0.0,0.0,0.0
27,7880.881035,3.5078098,1,28,2,2,1,2,4,2,46.00961538,n/a,n/a,7791770.0,7795280.0,0.0,0.0,0.0,7793570.0,7792287.0,7794280.0,7792287.0,7793280.0,7794286.0,7795280.0,3510.0,517.0,993.0,994.0,1993.0,-7794286.0,0.0,0.0,0.0,1.0,0.0,0.0,0.0,-0.32192248895702763,9.92767417557806,-0.017307660696614473,-0.782306263486975,7793556.0,7793612.0,56.0,390.026596659174,10.278105596262376,11.4198269379223,0.07449881567856177,276.0,0.08193295578107833,0.0,0.0,0.0,0.0,0.0,0.0,0.0,0.0,0.0,0.0,0.0,0.0,0.0
28,7884.397179,3.50783,1,29,2,2,2,1,3,1,46.00961538,n/a,n/a,7795286.0,7798796.0,0.0,0.0,0.0,7796946.0,7795803.0,7797795.0,7795803.0,7796596.0,7797803.0,7798796.0,3510.0,517.0,793.0,993.0,1992.0,-7797803.0,0.0,0.0,0.0,1.0,0.0,0.0,0.0,-0.7546140063723894,9.02075275507546,0.5261528851770815,0.4292299852760381,7796919.0,7796986.0,67.0,401.5393859799387,9.775847245602023,10.846281641654079,0.009914689276698233,323.0,-0.03894548468981312,1.0,-33.26532385889301,-1.426151241401034,18.726888873736858,1.1976901202057222,7797614.0,7797679.0,65.0,12622.823782714273,36.345642406033335,43.95155284685232,0.5032688067363323,0.7607248805060479
29,7887.913359,3.507825,1,30,2,1,2,2,5,2,46.00961538,n/a,n/a,7798802.0,7802312.0,0.0,0.0,0.0,7800812.0,7799319.0,7801313.0,7799319.0,7800512.0,7801319.0,7802312.0,3510.0,517.0,1193.0,993.0,1994.0,-7801319.0,0.0,0.0,0.0,1.0,0.0,0.0,0.0,-0.6715372350286407,-11.184210342152273,0.792690859904942,1.0280750453788992,7800800.0,7800863.0,63.0,502.6593495829094,10.515307963726583,11.414903340147559,-3.1192058772256286,288.0,-3.0945720854119196,0.0,0.0,0.0,0.0,0.0,0.0,0.0,0.0,0.0,0.0,0.0,0.0,0.0
30,7891.42965,3.7492946,1,31,2,2,2,2,3,1,46.00961538,n/a,n/a,7802319.0,7806069.0,0.0,0.0,0.0,7804352.0,7803079.0,7805070.0,7803079.0,7803868.0,7805076.0,7806070.0,3750.0,760.0,789.0,994.0,1991.0,-7805076.0,0.0,0.0,0.0,1.0,0.0,0.0,0.0,-0.4949990959231723,8.95498364442833,0.713075620700517,0.837690777716142,7804326.0,7804384.0,58.0,418.4788909735109,9.450804343033418,10.558311970385551,-0.013186048905928822,458.0,-0.027870774054510637,0.0,0.0,0.0,0.0,0.0,0.0,0.0,0.0,0.0,0.0,0.0,0.0,0.0
31,7895.187445,3.6577796,1,32,2,2,2,2,5,2,46.00961538,n/a,n/a,7806077.0,7809736.0,0.0,0.0,0.0,7808319.0,7806743.0,7808736.0,7806743.0,7807936.0,7808743.0,7809736.0,3659.0,666.0,1193.0,993.0,1993.0,-7808743.0,0.0,0.0,0.0,1.0,0.0,0.0,0.0,-0.3807685353255184,8.688445669700466,0.702691024282546,1.4296127735403559,7808296.0,7808357.0,61.0,395.55525844685815,9.098299925051334,9.888552870426388,-0.07998168474020008,360.0,-0.08657155071052557,0.0,0.0,0.0,0.0,0.0,0.0,0.0,0.0,0.0,0.0,0.0,0.0,0.0
32,7898.853425,3.7163192,1,33,2,2,1,1,5,2,46.00961538,n/a,n/a,7809742.0,7813461.0,0.0,0.0,0.0,7812019.0,7810469.0,7812460.0,7810469.0,7811659.0,7812467.0,7813461.0,3719.0,727.0,1190.0,994.0,1991.0,-7812467.0,0.0,0.0,0.0,1.0,0.0,0.0,0.0,-0.4949990959231723,10.398442546525978,0.7649986027903605,-0.623075785078121,7811989.0,7812063.0,74.0,408.52964244388033,10.981521812740787,12.148327798617442,0.12673994525811003,330.0,0.14439543754260373,0.0,0.0,0.0,0.0,0.0,0.0,0.0,0.0,0.0,0.0,0.0,0.0,0.0
33,7902.577888,3.9244162,1,34,2,1,1,2,1,2,46.00961538,n/a,n/a,7813467.0,7817393.0,0.0,0.0,0.0,7815210.0,7814400.0,7816393.0,7814400.0,7814793.0,7816400.0,7817393.0,3926.0,933.0,393.0,993.0,1993.0,-7816400.0,0.0,0.0,0.0,1.0,0.0,0.0,0.0,-0.7719216670690039,-11.689594034493416,0.7546140063723894,0.7096140885611933,7815189.0,7815255.0,66.0,504.32522283575213,10.917765106239719,11.704013999548826,3.1374709267722563,396.0,3.105798537057821,0.0,0.0,0.0,0.0,0.0,0.0,0.0,0.0,0.0,0.0,0.0,0.0,0.0
34,7906.510798,3.5076858,1,35,2,2,1,2,4,2,46.00961538,n/a,n/a,7817400.0,7820909.0,0.0,0.0,0.0,7819249.0,7817916.0,7819910.0,7817916.0,7818909.0,7819916.0,7820909.0,3509.0,516.0,993.0,993.0,1994.0,-7819916.0,0.0,0.0,0.0,1.0,0.0,0.0,0.0,-0.5953835279635394,10.256519728813734,0.6646141707499973,-0.3461532139322894,7819224.0,7819299.0,75.0,410.7701010972692,10.898874024429801,12.084351977788664,0.09287399060746356,315.0,0.11742669893806308,1.0,-0.5953835279635394,10.256519728813734,0.6646141707499973,-0.3461532139322894,7819224.0,7819299.0,75.0,410.7701010972692,10.898874024429801,12.084351977788664,0.09287399060746356,0.11742669893806308
35,7910.026836,3.507817,1,36,2,1,1,2,4,1,46.00961538,n/a,n/a,7820916.0,7824426.0,0.0,0.0,0.0,7822732.0,7821432.0,7823425.0,7821432.0,7822425.0,7823432.0,7824426.0,3510.0,516.0,993.0,994.0,1993.0,-7823432.0,0.0,0.0,0.0,1.0,0.0,0.0,0.0,-0.5503836101523394,-10.111135378962175,0.8307677134374947,-0.1488458819908829,7822711.0,7822796.0,85.0,478.3104588736578,9.610807311623125,10.639468254052364,3.039486991981966,286.0,3.0228873164466163,1.0,-0.9588444025924433,-0.8515369062734328,1.11115181672265,1.1526902023945242,7823470.0,7823493.0,23.0,35.22532994634332,0.1150666600300879,0.21818638701341903,-0.3693336576736199,-0.7292773806962657
36,7913.543075,3.5077366,1,37,2,1,1,2,1,1,46.00961538,n/a,n/a,7824432.0,7827942.0,0.0,0.0,0.0,7825775.0,7824949.0,7826941.0,7824949.0,7825342.0,7826948.0,7827942.0,3510.0,517.0,393.0,994.0,1992.0,-7826948.0,0.0,0.0,0.0,1.0,0.0,0.0,0.0,-0.5711528029882775,-10.484980850009046,0.5953835279635394,0.9588444025924433,7825747.0,7825813.0,66.0,491.65977209560356,9.920488413041046,10.774057013347306,-3.1049470550230076,405.0,-3.101421350096494,0.0,0.0,0.0,0.0,0.0,0.0,0.0,0.0,0.0,0.0,0.0,0.0,0.0
37,7917.059146,3.5077961,1,38,2,1,2,2,4,2,46.00961538,n/a,n/a,7827948.0,7831457.0,0.0,0.0,0.0,7829908.0,7828465.0,7830458.0,7828465.0,7829458.0,7830464.0,7831457.0,3509.0,517.0,993.0,993.0,1993.0,-7830464.0,0.0,0.0,0.0,1.0,0.0,0.0,0.0,-0.46384530666926704,-10.966133817374928,0.6299988493567683,1.166536330951815,7829895.0,7829969.0,74.0,521.537508991316,10.515984805583187,11.341431538509479,-3.090549356509985,437.0,-3.0789834580654367,1.0,-33.26532385889301,-0.8965368240846289,18.726888873736858,0.24923031403124998,7830604.0,7830672.0,68.0,11392.244427523287,37.27146683394472,52.433760178864325,0.5187083716441103,0.49435719533949324
38,7920.575475,3.6742889,1,39,2,1,1,2,2,2,46.00961538,n/a,n/a,7831465.0,7835140.0,0.0,0.0,0.0,7833240.0,7832147.0,7834141.0,7832147.0,7832740.0,7834147.0,7835140.0,3675.0,682.0,593.0,993.0,1994.0,-7834147.0,0.0,0.0,0.0,1.0,0.0,0.0,0.0,-0.35653781035025656,-10.796518742548107,0.12461515701562499,-0.0553845142291671,7833224.0,7833281.0,57.0,511.62282941475723,10.44153253820065,11.175148942066125,3.1243529823952634,484.0,3.1031738730924103,0.0,0.0,0.0,0.0,0.0,0.0,0.0,0.0,0.0,0.0,0.0,0.0,0.0
39,7924.258083,3.5078076,1,40,2,1,2,2,4,2,46.00961538,n/a,n/a,7835147.0,7838657.0,0.0,0.0,0.0,7836964.0,7835664.0,7837656.0,7835664.0,7836657.0,7837664.0,7838657.0,3510.0,517.0,993.0,993.0,1992.0,-7837664.0,0.0,0.0,0.0,1.0,0.0,0.0,0.0,-0.6542295743320262,-10.086904653986913,0.7615370706510368,0.9969212561249939,7836953.0,7837005.0,52.0,413.84776608028886,9.435611526187031,10.318564292554099,-3.1166437029311957,296.0,-3.0972965976732385,0.0,0.0,0.0,0.0,0.0,0.0,0.0,0.0,0.0,0.0,0.0,0.0,0.0
40,7927.774428,3.6909537,1,41,2,2,1,1,2,1,46.00961538,n/a,n/a,7838664.0,7842356.0,0.0,0.0,0.0,7840623.0,7839363.0,7841356.0,7839363.0,7839957.0,7841363.0,7842356.0,3692.0,699.0,594.0,993.0,1993.0,-7841363.0,0.0,0.0,0.0,0.0,0.0,0.0,1.0,-0.5815373994062447,10.1457507003554,0.1869227355234355,0.328845553235675,7840603.0,7840677.0,74.0,391.2760699937704,10.72822688338922,11.867875433889825,-0.013229302390466378,646.0,0.03821839237229388,0.0,0.0,0.0,0.0,0.0,0.0,0.0,0.0,0.0,0.0,0.0,0.0,0.0
41,7931.473712,3.6911503,1,42,2,2,1,1,5,2,46.00961538,n/a,n/a,7842363.0,7846055.0,0.0,0.0,0.0,7843522.0,7843063.0,7845055.0,7843063.0,7844256.0,7845063.0,7846055.0,3692.0,700.0,1193.0,992.0,1992.0,-7845063.0,0.0,0.0,0.0,0.0,0.0,1.0,0.0,-0.4361530495546855,10.79651874254811,0.4084607924401,0.7165371528398408,7844220.0,7844297.0,77.0,296.1049122768375,11.236895773875407,12.003499952488012,-0.027419936490613746,-36.0,-0.07851917456450193,0.0,0.0,0.0,0.0,0.0,0.0,0.0,0.0,0.0,0.0,0.0,0.0,0.0
42,7935.173282,3.5077527,1,43,2,1,2,1,2,1,46.00961538,n/a,n/a,7846062.0,7849571.0,0.0,0.0,0.0,7847705.0,7846579.0,7848572.0,7846579.0,7847171.0,7848579.0,7849571.0,3509.0,517.0,592.0,992.0,1993.0,-7848579.0,0.0,0.0,0.0,0.0,0.0,0.0,1.0,-0.34961474607161314,-10.377673353690035,0.2319226533346355,0.17999967124479208,7847692.0,7847756.0,64.0,484.92346638358197,10.028193029349756,10.94828770720279,3.1364149297528447,521.0,3.107439535887133,0.0,0.0,0.0,0.0,0.0,0.0,0.0,0.0,0.0,0.0,0.0,0.0,0.0
43,7938.689342,3.5078405,1,44,2,1,2,2,4,2,46.00961538,n/a,n/a,7849578.0,7853088.0,0.0,0.0,0.0,7851478.0,7850095.0,7852088.0,7850095.0,7851088.0,7852094.0,7853088.0,3510.0,517.0,993.0,994.0,1993.0,-7852094.0,0.0,0.0,0.0,1.0,0.0,0.0,0.0,-0.5538451422916632,-12.136131680466068,0.24576878189192627,0.5399990137343723,7851469.0,7851505.0,36.0,478.84840715327186,11.58602316939277,11.572813625570658,-3.1161946492404375,381.0,3.1047939480963924,1.0,-12.156900873302007,-11.294979370610603,0.5365374815950487,0.6853833635859315,7851507.0,7851540.0,33.0,132.16426073494816,0.8746792402860899,1.2329373009249436,-0.17100417327621817,-0.3466122158604931
44,7942.205512,3.6829168,1,45,2,1,1,1,5,1,46.00961538,n/a,n/a,7853094.0,7856779.0,0.0,0.0,0.0,7855311.0,7853787.0,7855779.0,7853787.0,7854977.0,7855786.0,7856779.0,3685.0,693.0,1190.0,993.0,1992.0,-7855786.0,0.0,0.0,0.0,1.0,0.0,0.0,0.0,-0.10384596417968683,-9.37729056542572,0.20423039622005,-0.9034598883632762,7855290.0,7855366.0,76.0,516.132447094805,9.339365746073954,10.607115611183136,3.02270836577476,313.0,3.008049122308602,1.0,0.22499958905598813,-0.3011532961210934,-0.08653830348307236,-0.07269217492578157,7856597.0,7856621.0,24.0,49.44393398931822,0.5263350395481875,0.5840149469434057,-3.1152829363368726,0.14273527737515482
45,7945.896649,3.5412845,1,46,2,1,1,1,3,1,46.00961538,n/a,n/a,7856785.0,7860328.0,0.0,0.0,0.0,7858495.0,7857335.0,7859329.0,7857335.0,7858128.0,7859335.0,7860328.0,3543.0,550.0,793.0,993.0,1994.0,-7859335.0,0.0,0.0,0.0,1.0,0.0,0.0,0.0,-0.08653830348307236,-9.657674668710875,-0.18346120338411182,-0.21807652477734077,7858472.0,7858547.0,75.0,488.8831233601017,9.571198960541006,10.772722368809777,3.137976032830248,344.0,3.1046320013537785,0.0,0.0,0.0,0.0,0.0,0.0,0.0,0.0,0.0,0.0,0.0,0.0,0.0
46,7949.446362,3.507602455,1,47,2,2,2,2,1,2,46.00961538,n/a,n/a,7860335.0,7863844.0,0.0,0.0,0.0,7861751.0,7860851.0,7862845.0,7860852.0,7861245.0,7862851.0,7863845.0,3509.0,517.0,393.0,994.0,1994.0,-7862851.0,0.0,0.0,0.0,1.0,0.0,0.0,0.0,-0.4569222423906236,9.709597650800719,-0.24923031403124998,-0.12807668915494866,7861730.0,7861798.0,68.0,391.4406361772514,10.167241756714354,11.440011801343298,-0.011916357957939612,485.0,0.03389558100482932,1.0,-33.26532385889301,-0.9761520632890578,18.726888873736858,-0.5261528851770815,7862440.0,7862507.0,67.0,14039.637447753312,37.59348656637889,44.95647658199972,0.5376718206111291,2.3857626446051263
47,7952.962287,3.507944,1,48,2,2,2,1,4,1,46.00961538,n/a,n/a,7863851.0,7867361.0,0.0,0.0,0.0,7865701.0,7864368.0,7866360.0,7864368.0,7865361.0,7866367.0,7867361.0,3510.0,517.0,993.0,994.0,1992.0,-7866367.0,0.0,0.0,0.0,1.0,0.0,0.0,0.0,-0.6680757028893171,8.228061895170521,-0.3011532961210934,0.6507680421927026,7865678.0,7865747.0,69.0,385.6843465974043,8.946922286348027,10.053129052820902,-0.10659828170406346,317.0,-0.1090221794733819,1.0,-33.26532385889301,-1.9073042087669156,18.726888873736858,-0.3773070031861947,7866572.0,7866623.0,51.0,13126.832051716956,36.71914618399423,45.209431778083854,0.5471774650351037,0.8045110141688004
48,7956.478625,3.6827216,1,49,2,1,2,2,4,1,46.00961538,n/a,n/a,7867367.0,7871052.0,0.0,0.0,0.0,7869350.0,7868060.0,7870051.0,7868060.0,7869050.0,7870058.0,7871052.0,3685.0,693.0,990.0,994.0,1991.0,-7870058.0,0.0,0.0,0.0,1.0,0.0,0.0,0.0,-0.5019221602018197,-10.89690317458847,-0.4707683709479144,0.1903842676627592,7869339.0,7869396.0,57.0,493.9059058413381,10.415985459907322,11.26183880156693,-3.078075147960137,289.0,3.0696063171498578,0.0,0.0,0.0,0.0,0.0,0.0,0.0,0.0,0.0,0.0,0.0,0.0,0.0
49,7960.16959,3.5078867,1,50,2,1,2,1,3,1,46.00961538,n/a,n/a,7871058.0,7874568.0,0.0,0.0,0.0,7872641.0,7871575.0,7873568.0,7871575.0,7872368.0,7873575.0,7874568.0,3510.0,517.0,793.0,993.0,1993.0,-7873575.0,0.0,0.0,0.0,1.0,0.0,0.0,0.0,-0.5919219958242157,-10.813826403244722,-0.15230741413020657,0.2007688640807263,7872630.0,7872690.0,60.0,497.84091971706346,10.228000419078892,11.195622968552945,-3.1070652360716147,262.0,-3.096436123193169,0.0,0.0,0.0,0.0,0.0,0.0,0.0,0.0,0.0,0.0,0.0,0.0,0.0
50,7963.685754,3.5078154,1,51,2,1,2,2,5,2,46.00961538,n/a,n/a,7874574.0,7878084.0,0.0,0.0,0.0,7876634.0,7875091.0,7877084.0,7875091.0,7876284.0,7877091.0,7878084.0,3510.0,517.0,1193.0,993.0,1993.0,-7877091.0,0.0,0.0,0.0,1.0,0.0,0.0,0.0,-0.5746143351276013,-10.94190309239967,-0.062307578507810525,0.7719216670690039,7876607.0,7876706.0,99.0,511.8599019503111,10.40079874869404,11.703986357757694,-3.061298212054165,323.0,-3.0533426583660352,0.0,0.0,0.0,0.0,0.0,0.0,0.0,0.0,0.0,0.0,0.0,0.0,0.0
51,7967.201902,3.5994909,1,52,2,1,2,2,3,1,46.00961538,n/a,n/a,7878091.0,7881692.0,0.0,0.0,0.0,7879901.0,7878700.0,7880691.0,7878700.0,7879490.0,7880699.0,7881692.0,3601.0,609.0,790.0,993.0,1991.0,-7880699.0,0.0,0.0,0.0,1.0,0.0,0.0,0.0,-0.6888448957252552,-10.813826403244722,-0.2596149104492171,0.21807652477734077,7879883.0,7879950.0,67.0,499.95711025364494,10.136243862245026,11.1832075135093,-3.0944481254028617,393.0,-3.0821279591895454,0.0,0.0,0.0,0.0,0.0,0.0,0.0,0.0,0.0,0.0,0.0,0.0,0.0
52,7970.809726,3.5078228,1,53,2,1,1,1,5,2,46.00961538,n/a,n/a,7881698.0,7885208.0,0.0,0.0,0.0,7883708.0,7882215.0,7884208.0,7882215.0,7883408.0,7884215.0,7885208.0,3510.0,517.0,1193.0,993.0,1993.0,-7884215.0,0.0,0.0,0.0,1.0,0.0,0.0,0.0,-0.5676912708489539,-10.09382771826556,-0.3461532139322894,-0.6265373172174447,7883687.0,7883745.0,58.0,454.3047558277044,9.530261846359423,10.297436765265823,3.11216800904456,279.0,3.0790270622990206,1.0,-0.4742299030872381,-0.3703839389075513,0.1730766069661447,0.06576911064713421,7884444.0,7884464.0,20.0,25.410779218690497,0.1493281053340705,0.21191815261762803,0.8017901377054573,0.9011573811182572
53,7974.32588,3.5078303,1,54,2,2,1,2,1,2,46.00961538,n/a,n/a,7885214.0,7888724.0,0.0,0.0,0.0,7886608.0,7885731.0,7887724.0,7885731.0,7886125.0,7887731.0,7888724.0,3510.0,517.0,394.0,993.0,1993.0,-7887731.0,0.0,0.0,0.0,1.0,0.0,0.0,0.0,-0.6507680421927026,8.612291962635359,-0.3115378925390605,-0.623075785078121,7886587.0,7886682.0,95.0,381.3733859852501,9.268297390110707,10.555088476227848,0.03361961475701558,462.0,0.05282437434757051,1.0,-0.6507680421927026,8.612291962635359,-0.3115378925390605,-0.623075785078121,7886587.0,7886682.0,95.0,381.3733859852501,9.268297390110707,10.555088476227848,0.03361961475701558,0.05282437434757051
54,7977.842044,3.5077971,1,55,2,2,1,1,2,1,46.00961538,n/a,n/a,7888731.0,7892240.0,0.0,0.0,0.0,7890231.0,7889247.0,7891240.0,7889247.0,7889841.0,7891247.0,7892240.0,3509.0,516.0,594.0,993.0,1993.0,-7891247.0,0.0,0.0,0.0,1.0,0.0,0.0,0.0,-0.6957679600039025,9.17652170134499,-0.31846095681770786,0.23538418547395523,7890214.0,7890280.0,66.0,373.5649175700332,9.887813084763298,10.906457784641496,-0.0560422367440984,373.0,-0.07019944452552918,0.0,0.0,0.0,0.0,0.0,0.0,0.0,0.0,0.0,0.0,0.0,0.0,0.0
55,7981.358344,3.5076726,1,56,2,2,2,2,3,1,46.00961538,n/a,n/a,7892247.0,7895756.0,0.0,0.0,0.0,7893997.0,7892763.0,7894756.0,7892763.0,7893556.0,7894763.0,7895756.0,3509.0,516.0,793.0,993.0,1993.0,-7894763.0,0.0,0.0,0.0,1.0,0.0,0.0,0.0,-0.5676912708489539,7.746908927804636,-0.05884604636849078,0.6680757028893171,7893971.0,7894043.0,72.0,375.33200714315774,8.34631605518233,9.457854764182267,-0.08720541010395404,415.0,-0.09861253285031893,1.0,7.54614006372391,-33.26532385889301,0.10384596417968683,18.726888873736858,7894615.0,7894645.0,30.0,12812.473670754081,44.85970702889477,52.527234075483854,-2.7134963576364233,-2.6029588253436406
56,7984.874338,3.507851,1,57,2,2,2,1,4,1,46.00961538,n/a,n/a,7895763.0,7899272.0,0.0,0.0,0.0,7897656.0,7896280.0,7898273.0,7896280.0,7897272.0,7898280.0,7899273.0,3509.0,517.0,992.0,993.0,1993.0,-7898280.0,0.0,0.0,0.0,1.0,0.0,0.0,0.0,-0.5919219958242157,8.882291469502544,-0.3911531317434855,0.3253840210963513,7897632.0,7897714.0,82.0,366.50943927761415,9.501270771743046,10.483492822713396,-0.07548654493392322,360.0,-0.07071934026478638,1.0,-33.26532385889301,-0.5399990137343723,18.726888873736858,0.05192298208984342,7898545.0,7898595.0,50.0,12845.790399695483,37.678922984545835,44.93676550638511,0.5185649707125018,2.3874649476379566
57,7988.39051,3.5078161,1,58,2,1,1,1,3,1,46.00961538,n/a,n/a,7899279.0,7902789.0,0.0,0.0,0.0,7900856.0,7899796.0,7901789.0,7899796.0,7900589.0,7901795.0,7902789.0,3510.0,517.0,793.0,994.0,1993.0,-7901795.0,0.0,0.0,0.0,1.0,0.0,0.0,0.0,-0.588460463684892,-10.39498101438665,-0.1903842676627592,0.062307578507810525,7900835.0,7900896.0,61.0,475.43555526900445,9.809775659027936,10.825938306966673,-3.1158306169935397,246.0,3.1016139664665032,1.0,-33.26532385889301,-0.7857677956262986,18.726888873736858,0.872306099109371,7901532.0,7901599.0,67.0,13129.183917479784,37.06356280935375,53.772959191379755,0.502626351546159,0.606143146562246
58,7991.906794,3.5577135,1,59,2,2,2,1,3,1,46.00961538,n/a,n/a,7902796.0,7906355.0,0.0,0.0,0.0,7904512.0,7903362.0,7905354.0,7903362.0,7904155.0,7905362.0,7906355.0,3559.0,566.0,793.0,993.0,1992.0,-7905362.0,0.0,0.0,0.0,1.0,0.0,0.0,0.0,-0.3807685353255184,8.85806074452729,-0.35653781035025656,-0.04153838567187631,7904490.0,7904559.0,69.0,373.4053980188695,9.244197699087426,10.32572310169986,-0.034081964282152946,335.0,0.03654862849013678,0.0,0.0,0.0,0.0,0.0,0.0,0.0,0.0,0.0,0.0,0.0,0.0,0.0
59,7995.472837,3.5078142,1,60,2,2,1,2,4,2,46.00961538,n/a,n/a,7906361.0,7909871.0,0.0,0.0,0.0,7908295.0,7906878.0,7908871.0,7906878.0,7907871.0,7908878.0,7909871.0,3510.0,517.0,993.0,993.0,1993.0,-7908878.0,0.0,0.0,0.0,1.0,0.0,0.0,0.0,-0.4707683709479144,10.654595924835867,-0.10384596417968683,-0.7303832813971315,7908278.0,7908340.0,62.0,378.5193264257765,11.14299240436637,12.01723118108227,0.05625669440651946,407.0,0.05706434936270195,1.0,11.166902681455655,7.348832731782503,-1.0038443204036394,-0.45346071025129997,7908770.0,7908815.0,45.0,365.4763450952166,3.8575355162229497,4.398713959756465,-2.9984265641338737,2.9891228154402962
60,7998.988998,3.5078417,1,61,2,2,1,1,2,1,46.00961538,n/a,n/a,7909877.0,7913386.0,0.0,0.0,0.0,7911403.0,7910394.0,7912387.0,7910394.0,7910988.0,7912394.0,7913387.0,3509.0,517.0,594.0,993.0,1993.0,-7912394.0,0.0,0.0,0.0,1.0,0.0,0.0,0.0,-0.4465376459726526,9.820366679259052,0.4292299852760381,0.6853833635859315,7911380.0,7911454.0,74.0,427.895717885019,10.270099268102577,11.129786724988488,-0.024944251981077106,392.0,-0.03764171999315089,1.0,-33.26532385889301,-1.3534590664752524,18.726888873736858,1.2149977809023367,7912174.0,7912238.0,64.0,12650.264803933118,36.401008834603054,43.8229039199909,0.5018891598318668,0.7556796021971697
61,8002.50516,3.5078263,1,62,2,2,2,2,4,1,46.00961538,n/a,n/a,7913394.0,7916903.0,0.0,0.0,0.0,7915243.0,7913910.0,7915903.0,7913910.0,7914904.0,7915910.0,7916903.0,3509.0,516.0,994.0,993.0,1993.0,-7915910.0,0.0,0.0,0.0,1.0,0.0,0.0,0.0,-0.43269151741536177,8.660753412585883,0.06576911064713421,0.7269217492578078,7915223.0,7915291.0,68.0,373.59342785498916,9.117448300182854,10.09634223902689,-0.0725787995435497,319.0,-0.08168915159247701,1.0,-0.43269151741536177,8.660753412585883,0.06576911064713421,0.7269217492578078,7915223.0,7915291.0,68.0,373.59342785498916,9.117448300182854,10.09634223902689,-0.0725787995435497,-0.08168915159247701
62,8006.021325,3.5078259,1,63,2,2,1,2,1,2,46.00961538,n/a,n/a,7916910.0,7920419.0,0.0,0.0,0.0,7918303.0,7917426.0,7919420.0,7917427.0,7917819.0,7919426.0,7920419.0,3509.0,517.0,392.0,993.0,1994.0,-7919426.0,0.0,0.0,0.0,1.0,0.0,0.0,0.0,-0.6196142529387973,9.193829362041605,0.3773070031861947,0.39807619602213284,7918279.0,7918368.0,89.0,404.6794436167192,9.813465592937629,11.147099343240315,-0.0021163989565109237,460.0,0.06245755091603452,1.0,-33.26532385889301,0.8549984384127565,18.726888873736858,0.3807685353255184,7918927.0,7918985.0,58.0,13574.466583570711,38.73985706147471,51.39268209947211,0.4933422440767478,0.6429892140189105
63,8009.537573,3.5077532,1,64,2,1,2,2,3,1,46.00961538,n/a,n/a,7920426.0,7923935.0,0.0,0.0,0.0,7922019.0,7920943.0,7922936.0,7920943.0,7921735.0,7922942.0,7923935.0,3509.0,517.0,792.0,993.0,1993.0,-7922942.0,0.0,0.0,0.0,1.0,0.0,0.0,0.0,-0.498460628062496,-11.014595267325452,0.6126911886601539,0.5711528029882775,7921998.0,7922070.0,72.0,532.1335597396189,10.51621667657102,11.551872852025518,3.137642707048771,263.0,3.1146207787455222,1.0,-1.1838439916484313,-0.9934597239856723,1.1146133488619716,1.1249979452799406,7922740.0,7922762.0,22.0,39.38311614494126,0.19066727358476923,0.28200335624977796,-0.05449145624073325,0.7246036075226554
64,8013.053656,3.5077789,1,65,2,2,1,2,3,2,46.00961538,n/a,n/a,7923942.0,7927452.0,0.0,0.0,0.0,7925552.0,7924459.0,7926452.0,7924459.0,7925252.0,7926458.0,7927452.0,3510.0,517.0,793.0,994.0,1993.0,-7926458.0,0.0,0.0,0.0,1.0,0.0,0.0,0.0,-0.7061525564218697,9.221521619156194,0.5642297387096302,-0.10038443204036315,7925530.0,7925602.0,72.0,417.45002833928964,9.949895805102749,11.17556334694742,0.06684586440739648,278.0,0.09803517061787448,1.0,-0.7442294099544223,-0.8515369062734328,1.29115148796744,1.2253823773203039,7926351.0,7926371.0,20.0,17.612664973172286,0.12585894756261748,0.11936013341820265,2.5917394709132036,2.626043646130817
65,8016.569932,3.507697,1,66,2,2,1,2,2,1,46.00961538,n/a,n/a,7927459.0,7930968.0,0.0,0.0,0.0,7928875.0,7927975.0,7929967.0,7927975.0,7928568.0,7929975.0,7930968.0,3509.0,516.0,593.0,993.0,1992.0,-7929975.0,0.0,0.0,0.0,1.0,0.0,0.0,0.0,-0.5296144173164012,10.128443039658785,0.7442294099544223,0.9069214205025999,7928858.0,7928925.0,67.0,442.9863362719634,10.659299106718068,12.033177953860074,-0.015263510881888083,290.0,-0.04949870489642445,1.0,-1.1907670559270749,-0.917306016920567,0.8999983562239525,0.9484598061744722,7930603.0,7930634.0,31.0,135.3149667127598,0.27772189684255283,0.9836904539143194,-0.17539422054342027,-0.1911844595970138
66,8020.085952,3.5078395,1,67,2,2,2,2,4,1,46.00961538,n/a,n/a,7930974.0,7934484.0,0.0,0.0,0.0,7932817.0,7931491.0,7933484.0,7931491.0,7932484.0,7933491.0,7934484.0,3510.0,517.0,993.0,993.0,1993.0,-7933491.0,0.0,0.0,0.0,1.0,0.0,0.0,0.0,-0.373845471046871,8.387292373579372,0.498460628062496,1.0834595596080663,7932794.0,7932858.0,64.0,371.77465756074594,8.780646905692748,9.839674687794865,-0.06667305704653592,310.0,-0.08629644067652811,1.0,-0.373845471046871,8.387292373579372,0.498460628062496,1.0834595596080663,7932794.0,7932858.0,64.0,371.77465756074594,8.780646905692748,9.839674687794865,-0.06667305704653592,-0.08629644067652811
67,8023.602255,3.6826368,1,68,2,1,2,2,4,2,46.00961538,n/a,n/a,7934491.0,7938174.0,0.0,0.0,0.0,7936450.0,7935184.0,7937175.0,7935184.0,7936174.0,7937182.0,7938174.0,3683.0,693.0,990.0,992.0,1991.0,-7937182.0,0.0,0.0,0.0,1.0,0.0,0.0,0.0,-0.46730683880859075,-9.792674422144467,0.49153756378385255,0.7338448135364551,7936433.0,7936496.0,63.0,502.49941340864075,9.328515067662927,10.22938563584908,-3.1156148314458263,259.0,3.103345144915053,1.0,-9.823828211398373,-9.83075127567702,0.6507680421927026,0.6369219136354117,7936521.0,7936547.0,26.0,30.198988678470773,0.015480442339652529,0.1142829960195552,2.0344439357958164,0.9575889779203811
68,8027.293268,3.5077696,1,69,2,2,1,1,1,2,46.00961538,n/a,n/a,7938182.0,7941691.0,0.0,0.0,0.0,7939742.0,7938698.0,7940691.0,7938698.0,7939091.0,7940698.0,7941691.0,3509.0,516.0,393.0,993.0,1993.0,-7940698.0,0.0,0.0,0.0,0.0,0.0,0.0,1.0,-0.5607682065703105,11.42651759190487,0.21461499263802103,-0.006923064278647363,7939715.0,7939805.0,90.0,447.9237598337083,11.98933275562019,13.260406307539414,0.018478982119987046,624.0,0.05955292843935355,0.0,0.0,0.0,0.0,0.0,0.0,0.0,0.0,0.0,0.0,0.0,0.0,0.0
69,8030.809369,3.5079868,1,70,2,1,2,1,2,2,46.00961538,n/a,n/a,7941698.0,7945207.0,0.0,0.0,0.0,7943141.0,7942214.0,7944207.0,7942214.0,7942807.0,7944214.0,7945207.0,3509.0,516.0,593.0,993.0,1993.0,-7944214.0,0.0,0.0,0.0,1.0,0.0,0.0,0.0,-0.46384530666926704,-10.118058443240818,0.5399990137343723,0.7961523920442657,7943123.0,7943186.0,63.0,564.8305267678853,9.657610772834568,10.638888243519336,-3.1150660697792087,316.0,3.1015619495090223,0.0,0.0,0.0,0.0,0.0,0.0,0.0,0.0,0.0,0.0,0.0,0.0,0.0
70,8034.325655,3.5077082,1,71,2,1,2,1,2,2,46.00961538,n/a,n/a,7945214.0,7948723.0,0.0,0.0,0.0,7946640.0,7945731.0,7947724.0,7945731.0,7946323.0,7947730.0,7948724.0,3509.0,517.0,592.0,994.0,1993.0,-7947730.0,0.0,0.0,0.0,1.0,0.0,0.0,0.0,-0.18346120338411182,-10.38113488582936,-0.079615239204425,-0.05884604636849078,7946628.0,7946697.0,69.0,560.7996633703467,10.197694832314188,11.41010468537769,-3.1395559965279967,305.0,3.104572537715863,0.0,0.0,0.0,0.0,0.0,0.0,0.0,0.0,0.0,0.0,0.0,0.0,0.0
71,8037.841836,3.5077236,1,72,2,1,2,2,1,1,46.00961538,n/a,n/a,7948730.0,7952239.0,0.0,0.0,0.0,7949980.0,7949247.0,7951240.0,7949247.0,7949640.0,7951247.0,7952240.0,3509.0,517.0,393.0,993.0,1993.0,-7951247.0,0.0,0.0,0.0,1.0,0.0,0.0,0.0,-0.20423039622005,-10.301519646624934,-0.2526918461705697,-0.4465376459726526,7949959.0,7950032.0,73.0,519.1185912390124,10.099149786018769,11.367075459132993,3.122397205590641,319.0,3.0873610395581754,1.0,-10.301519646624934,-10.183827553887957,-0.4465376459726526,-0.41538385671874734,7950034.0,7950054.0,20.0,26.694725016325467,0.12174558422253386,0.13321278180815965,-0.2587708919636931,-0.4287780274460218
72,8041.35789,3.5078766,1,73,2,1,2,1,4,2,46.00961538,n/a,n/a,7952246.0,7955756.0,0.0,0.0,0.0,7953923.0,7952763.0,7954756.0,7952763.0,7953756.0,7954763.0,7955756.0,3510.0,517.0,993.0,993.0,1993.0,-7954763.0,0.0,0.0,0.0,1.0,0.0,0.0,0.0,-0.6923064278645789,-11.336517756282479,-0.0692306427864579,0.3530762782109368,7953912.0,7953976.0,64.0,520.3443278655902,10.652585504915802,11.970185347423156,-3.1019386544299494,156.0,-3.087489697718017,0.0,0.0,0.0,0.0,0.0,0.0,0.0,0.0,0.0,0.0,0.0,0.0,0.0
73,8044.87409,3.5079675,1,74,2,2,1,1,1,1,46.00961538,n/a,n/a,7955762.0,7959272.0,0.0,0.0,0.0,7957138.0,7956279.0,7958272.0,7956279.0,7956672.0,7958279.0,7959272.0,3510.0,517.0,393.0,993.0,1993.0,-7958279.0,0.0,0.0,0.0,1.0,0.0,0.0,0.0,-0.7234602171184842,9.650751604432228,-0.20769192835937367,0.08999983562239604,7957116.0,7957184.0,68.0,425.30736941748256,10.378482129133582,11.602676732489114,-0.028687489769619483,444.0,-0.05402565477085582,1.0,17.88227503174207,-33.26532385889301,-0.02769225711458158,18.726888873736858,7957766.0,7957823.0,57.0,21953.25364227759,54.477620961923286,67.43142944545734,-2.7901399053707063,-2.6708052604984305
74,8048.390237,3.5078201,1,75,2,2,1,1,5,1,46.00961538,n/a,n/a,7959278.0,7962788.0,0.0,0.0,0.0,7961221.0,7959795.0,7961788.0,7959795.0,7960988.0,7961795.0,7962788.0,3510.0,517.0,1193.0,993.0,1993.0,-7961795.0,0.0,0.0,0.0,1.0,0.0,0.0,0.0,-0.46730683880859075,10.626903667721285,0.28384563542447894,-0.1488458819908829,7961205.0,7961273.0,68.0,414.8406339177174,11.102645122331936,12.64676250493935,0.03898180271831512,217.0,0.07589020537850226,0.0,0.0,0.0,0.0,0.0,0.0,0.0,0.0,0.0,0.0,0.0,0.0,0.0
75,8051.906587,3.5076312,1,76,2,1,2,1,1,1,46.00961538,n/a,n/a,7962795.0,7966304.0,0.0,0.0,0.0,7964054.0,7963311.0,7965304.0,7963311.0,7963704.0,7965311.0,7966304.0,3509.0,516.0,393.0,993.0,1993.0,-7965311.0,0.0,0.0,0.0,1.0,0.0,0.0,0.0,-0.3773070031861947,-10.962672285235609,0.6992294921432263,0.22153805691666445,7964040.0,7964109.0,69.0,519.4464419825525,10.596138318354752,11.510091459760961,3.096495715866068,336.0,3.0597001723010115,0.0,0.0,0.0,0.0,0.0,0.0,0.0,0.0,0.0,0.0,0.0,0.0,0.0
76,8055.42255,3.507831,1,77,2,2,2,2,1,2,46.00961538,n/a,n/a,7966311.0,7969820.0,0.0,0.0,0.0,7967577.0,7966827.0,7968821.0,7966827.0,7967220.0,7968827.0,7969820.0,3509.0,516.0,393.0,993.0,1994.0,-7968827.0,0.0,0.0,0.0,1.0,0.0,0.0,0.0,-0.5849989315455684,10.827672531802012,0.6784602993072881,0.7407678778150986,7967556.0,7967631.0,75.0,454.7466853819488,11.412841546461939,12.707654110494381,-0.005459454402726704,336.0,0.04114361675495577,0.0,0.0,0.0,0.0,0.0,0.0,0.0,0.0,0.0,0.0,0.0,0.0,0.0
77,8058.938799,3.5077421,1,78,2,2,2,2,4,2,46.00961538,n/a,n/a,7969827.0,7973336.0,0.0,0.0,0.0,7971810.0,7970343.0,7972337.0,7970343.0,7971336.0,7972343.0,7973337.0,3509.0,516.0,993.0,994.0,1994.0,-7972343.0,0.0,0.0,0.0,1.0,0.0,0.0,0.0,-0.5088452244804671,9.98652022194655,0.5815373994062447,1.4642280949335846,7971799.0,7971878.0,79.0,442.8394224394355,10.532418464817315,12.159632732382738,-0.0839054447367488,463.0,-0.09179390733318445,1.0,-2.1426883942408708,-1.4676896270729065,1.2426900380169184,1.3880743878684814,7972923.0,7972947.0,24.0,63.50336665833942,0.6904780553066358,0.6593014801837903,-0.21214375300447783,2.924632134299722
78,8062.454875,3.7744611,1,79,2,1,2,2,5,1,46.00961538,n/a,n/a,7973343.0,7977120.0,0.0,0.0,0.0,7975576.0,7974126.0,7976119.0,7974126.0,7975319.0,7976126.0,7977120.0,3777.0,783.0,1193.0,994.0,1993.0,-7976126.0,0.0,0.0,0.0,1.0,0.0,0.0,0.0,-0.46730683880859075,-11.824593787927007,0.7511524742330696,1.0523057703541592,7975564.0,7975601.0,37.0,536.835475220686,11.361278984004404,11.362693712660239,-3.1150825596313414,245.0,-3.0888654882251454,1.0,-11.824593787927007,-11.028441395882743,1.0280750453788992,1.1388440738372314,7975603.0,7975650.0,47.0,126.40781508377583,0.8038211299931154,0.9454229453782926,-0.13824299047772803,-0.2591872983522891
79,8066.237672,3.5078365,1,80,2,2,1,1,2,2,46.00961538,n/a,n/a,7977126.0,7980635.0,0.0,0.0,0.0,7977759.0,7977642.0,7979635.0,7977642.0,7978236.0,7979642.0,7980635.0,3509.0,516.0,594.0,993.0,1993.0,-7979642.0,0.0,0.0,0.0,0.0,1.0,0.0,0.0,0.0,0.0,0.0,0.0,0.0,0.0,0.0,0.0,0.0,0.0,0.0,0.0,0.0,0.0,0.0,0.0,0.0,0.0,0.0,0.0,0.0,0.0,0.0,0.0,0.0,0.0
80,8094.908549,3.7494287,1,81,2,2,1,2,5,2,46.00961538,n/a,n/a,8005797.0,8009548.0,0.0,0.0,0.0,8008006.0,8006556.0,8008548.0,8006556.0,8007746.0,8008555.0,8009548.0,3751.0,759.0,1190.0,993.0,1992.0,-8008555.0,0.0,0.0,0.0,1.0,0.0,0.0,0.0,0.05192298208984342,9.941520304135354,-0.044999917811196055,-1.1284594774192644,8007990.0,8008063.0,73.0,408.0996490911246,9.948769763619813,11.345677867315825,0.10912029777018876,244.0,0.1201922938982676,0.0,0.0,0.0,0.0,0.0,0.0,0.0,0.0,0.0,0.0,0.0,0.0,0.0
81,8098.666312,3.507816,1,82,2,1,2,1,5,1,46.00961538,n/a,n/a,8009554.0,8013064.0,0.0,0.0,0.0,8011504.0,8010071.0,8012064.0,8010071.0,8011264.0,8012071.0,8013064.0,3510.0,517.0,1193.0,993.0,1993.0,-8012071.0,0.0,0.0,0.0,1.0,0.0,0.0,0.0,-0.02769225711458158,-11.118441231505138,0.08307677134374868,0.20423039622005,8011488.0,8011562.0,74.0,550.2481317032992,11.09141068637195,12.434431028715885,-3.13066924288076,224.0,-3.1067877728744064,0.0,0.0,0.0,0.0,0.0,0.0,0.0,0.0,0.0,0.0,0.0,0.0,0.0
82,8102.182468,3.5078207,1,83,2,2,1,2,5,2,46.00961538,n/a,n/a,8013070.0,8016580.0,0.0,0.0,0.0,8015087.0,8013587.0,8015580.0,8013587.0,8014780.0,8015587.0,8016580.0,3510.0,517.0,1193.0,993.0,1993.0,-8015587.0,0.0,0.0,0.0,1.0,0.0,0.0,0.0,-0.33230708537499865,10.208058278863218,-0.12807668915494866,-1.585381719809884,8015064.0,8015139.0,75.0,438.2375030895614,10.640631558512156,12.397517346001079,0.1373884359087837,284.0,0.14485854643986065,1.0,-33.26532385889301,-1.3846128557291577,18.726888873736858,0.4292299852760381,8015793.0,8015841.0,48.0,12636.976325829532,36.75845555604482,44.28438395826969,0.5210383258784389,0.7658860178747693
83,8105.698634,3.5078339,1,84,2,1,2,2,1,1,46.00961538,n/a,n/a,8016587.0,8020096.0,0.0,0.0,0.0,8017986.0,8017103.0,8019096.0,8017103.0,8017497.0,8019103.0,8020096.0,3509.0,516.0,394.0,993.0,1993.0,-8019103.0,0.0,0.0,0.0,1.0,0.0,0.0,0.0,-0.34961474607161314,-10.446903996476493,0.14192281771223947,-0.23538418547395523,8017967.0,8018045.0,78.0,590.1912297545525,10.104336236537028,11.605544731120519,3.104242872971504,470.0,3.10131593941447,0.0,0.0,0.0,0.0,0.0,0.0,0.0,0.0,0.0,0.0,0.0,0.0,0.0
84,8109.2148,3.5078258,1,85,2,1,1,1,5,2,46.00961538,n/a,n/a,8020103.0,8023612.0,0.0,0.0,0.0,8022036.0,8020619.0,8022612.0,8020619.0,8021813.0,8022619.0,8023612.0,3509.0,516.0,1194.0,993.0,1993.0,-8022619.0,0.0,0.0,0.0,1.0,0.0,0.0,0.0,-0.15230741413020657,-8.989598965821559,0.062307578507810525,-0.5123067566197868,8022016.0,8022093.0,77.0,520.3916599225839,8.855953003699234,10.206750583436499,3.0766625112812895,203.0,3.0798296505656113,0.0,0.0,0.0,0.0,0.0,0.0,0.0,0.0,0.0,0.0,0.0,0.0,0.0
85,8112.731009,3.5078108,1,86,2,1,2,1,4,1,46.00961538,n/a,n/a,8023619.0,8027128.0,0.0,0.0,0.0,8025402.0,8024136.0,8026128.0,8024136.0,8025129.0,8026135.0,8027128.0,3509.0,517.0,993.0,993.0,1992.0,-8026135.0,0.0,0.0,0.0,1.0,0.0,0.0,0.0,-0.4430761138333289,-11.08728744225123,0.3253840210963513,0.6299988493567683,8025388.0,8025456.0,68.0,571.0202120826089,10.648569152595858,11.539706219594766,-3.1129825760988425,259.0,-3.094480393658386,0.0,0.0,0.0,0.0,0.0,0.0,0.0,0.0,0.0,0.0,0.0,0.0,0.0
86,8116.247159,3.507807,1,87,2,1,2,1,1,2,46.00961538,n/a,n/a,8027135.0,8030644.0,0.0,0.0,0.0,8028452.0,8027652.0,8029645.0,8027652.0,8028045.0,8029651.0,8030645.0,3509.0,517.0,393.0,994.0,1993.0,-8029651.0,0.0,0.0,0.0,1.0,0.0,0.0,0.0,-0.6057681243815065,-10.356904160854102,0.7234602171184842,0.20423039622005,8028431.0,8028515.0,84.0,563.3244010047048,9.764950261455748,11.200219318165646,3.0883947577821087,386.0,3.0729275396372673,0.0,0.0,0.0,0.0,0.0,0.0,0.0,0.0,0.0,0.0,0.0,0.0,0.0
87,8119.763303,3.5078184,1,88,2,1,1,2,2,1,46.00961538,n/a,n/a,8030651.0,8034161.0,0.0,0.0,0.0,8032078.0,8031168.0,8033161.0,8031168.0,8031761.0,8033168.0,8034161.0,3510.0,517.0,593.0,993.0,1993.0,-8033168.0,0.0,0.0,0.0,1.0,0.0,0.0,0.0,-0.5261528851770815,-10.478057785730403,0.4292299852760381,0.3911531317434855,8032056.0,8032119.0,63.0,581.6758899888171,9.951977742963061,10.953375654284724,3.1377665853030616,295.0,3.103344396336737,0.0,0.0,0.0,0.0,0.0,0.0,0.0,0.0,0.0,0.0,0.0,0.0,0.0
88,8123.279603,3.5077201,1,89,2,1,1,1,5,2,46.00961538,n/a,n/a,8034168.0,8037677.0,0.0,0.0,0.0,8036111.0,8034684.0,8036676.0,8034684.0,8035877.0,8036684.0,8037677.0,3509.0,516.0,1193.0,993.0,1992.0,-8036684.0,0.0,0.0,0.0,1.0,0.0,0.0,0.0,-0.2526918461705697,-9.668059265128843,0.07269217492578157,-0.46384530666926704,8036088.0,8036150.0,62.0,558.0029057281258,9.430642401402851,10.561647364200402,3.084668922799869,211.0,3.0523273828552964,0.0,0.0,0.0,0.0,0.0,0.0,0.0,0.0,0.0,0.0,0.0,0.0,0.0
89,8126.795655,3.4995217,1,90,2,1,2,1,5,2,46.00961538,n/a,n/a,8037684.0,8041185.0,0.0,0.0,0.0,8039650.0,8038194.0,8040185.0,8038194.0,8039383.0,8040192.0,8041186.0,3501.0,510.0,1189.0,994.0,1991.0,-8040192.0,0.0,0.0,0.0,1.0,0.0,0.0,0.0,-0.39807619602213284,-11.063056717275972,0.21461499263802103,1.0938441560260355,8039634.0,8039696.0,62.0,542.6407840740383,10.70116131270227,11.429612732501692,-3.0593378986625015,251.0,-3.0603377373715057,0.0,0.0,0.0,0.0,0.0,0.0,0.0,0.0,0.0,0.0,0.0,0.0,0.0
90,8130.303575,3.5077126,1,91,2,1,2,2,4,1,46.00961538,n/a,n/a,8041191.0,8044701.0,0.0,0.0,0.0,8042974.0,8041708.0,8043701.0,8041708.0,8042701.0,8043708.0,8044701.0,3510.0,517.0,993.0,993.0,1993.0,-8043708.0,0.0,0.0,0.0,1.0,0.0,0.0,0.0,-0.5746143351276013,-12.073824101958254,0.7303832813971315,0.6334603814960881,8042954.0,8042995.0,41.0,587.3885051209108,11.49961822453679,11.390779399748899,3.1331641957429808,253.0,-3.1096788954563728,1.0,-12.039208780565025,-11.571901941756435,0.6196142529387973,0.951921338313796,8042997.0,8043022.0,25.0,116.42538007328194,0.5734140568452302,0.9148993809868359,-0.6181442259351884,-0.46703169083722323
91,8133.819618,3.6661428,1,92,2,2,1,2,4,1,46.00961538,n/a,n/a,8044707.0,8048375.0,0.0,0.0,0.0,8046684.0,8045384.0,8047375.0,8045384.0,8046374.0,8047382.0,8048375.0,3668.0,677.0,990.0,993.0,1991.0,-8047382.0,0.0,0.0,0.0,1.0,0.0,0.0,0.0,-0.5988450601028592,9.152290976369736,0.6992294921432263,0.39807619602213284,8046656.0,8046726.0,70.0,422.26987656513774,9.755785325106281,10.579672825075448,0.030874105481684535,282.0,0.06450056709646795,0.0,0.0,0.0,0.0,0.0,0.0,0.0,0.0,0.0,0.0,0.0,0.0,0.0
92,8137.494212,3.682878,1,93,2,2,2,2,5,1,46.00961538,n/a,n/a,8048382.0,8052067.0,0.0,0.0,0.0,8050525.0,8049075.0,8051067.0,8049075.0,8050265.0,8051073.0,8052067.0,3685.0,693.0,1190.0,994.0,1992.0,-8051073.0,0.0,0.0,0.0,1.0,0.0,0.0,0.0,-0.418845388858071,8.086139077458277,0.4119223245794236,1.0938441560260355,8050502.0,8050566.0,64.0,400.1814114321882,8.53227860284027,9.44583623381598,-0.0800079245317575,237.0,-0.0803413974564245,0.0,0.0,0.0,0.0,0.0,0.0,0.0,0.0,0.0,0.0,0.0,0.0,0.0
93,8141.185241,3.9994005,1,94,2,2,1,1,5,2,46.00961538,n/a,n/a,8052073.0,8056074.0,0.0,0.0,0.0,8054557.0,8053083.0,8055075.0,8053083.0,8054273.0,8055081.0,8056074.0,4001.0,1010.0,1190.0,993.0,1992.0,-8055081.0,0.0,0.0,0.0,1.0,0.0,0.0,0.0,-0.5019221602018197,10.246135132395768,0.4257684531367144,-0.65769110647135,8054535.0,8054602.0,67.0,461.3735272061696,10.802528416174905,12.155545556667718,0.10046576994500976,262.0,0.1184562956984894,0.0,0.0,0.0,0.0,0.0,0.0,0.0,0.0,0.0,0.0,0.0,0.0,0.0
94,8145.193002,3.50782,1,95,2,2,1,2,4,2,46.00961538,n/a,n/a,8056081.0,8059590.0,0.0,0.0,0.0,8058024.0,8056597.0,8058591.0,8056597.0,8057590.0,8058597.0,8059591.0,3509.0,516.0,993.0,994.0,1994.0,-8058597.0,0.0,0.0,0.0,1.0,0.0,0.0,0.0,-0.21461499263802103,10.131904571798113,0.13153822129426843,-0.5296144173164012,8058000.0,8058057.0,57.0,433.5084370592941,10.367622191650385,11.469988755984662,0.06381420636196906,410.0,0.0718880100026013,1.0,-0.21461499263802103,10.131904571798113,0.13153822129426843,-0.5296144173164012,8058000.0,8058057.0,57.0,433.5084370592941,10.367622191650385,11.469988755984662,0.06381420636196906,0.0718880100026013
95,8148.709264,3.624610001,1,96,2,1,2,1,2,2,46.00961538,n/a,n/a,8059597.0,8063224.0,0.0,0.0,0.0,8061157.0,8060230.0,8062223.0,8060230.0,8060824.0,8062230.0,8063224.0,3627.0,633.0,594.0,994.0,1993.0,-8062230.0,0.0,0.0,0.0,1.0,0.0,0.0,0.0,-0.38423006746484206,-10.703057374786392,0.4119223245794236,0.5053836923411433,8061134.0,8061195.0,61.0,590.8157571946232,10.319250555422558,11.298171527858779,-3.132535537952802,310.0,3.1072713722492233,1.0,-0.8688445669700473,-0.8307677134374947,0.747690942093746,0.49153756378385255,8061895.0,8061919.0,24.0,34.15553788440774,0.2589679516745476,0.3005160182295574,1.4232282554808984,-1.1432155451102666
96,8152.342116,3.5078136,1,97,2,1,2,1,4,1,46.00961538,n/a,n/a,8063230.0,8066739.0,0.0,0.0,0.0,8065090.0,8063746.0,8065739.0,8063746.0,8064740.0,8065746.0,8066739.0,3509.0,516.0,994.0,993.0,1993.0,-8065746.0,0.0,0.0,0.0,1.0,0.0,0.0,0.0,-0.5642297387096302,-12.02190111986841,0.5538451422916632,1.007305852542963,8065073.0,8065127.0,54.0,495.65156949544985,11.466641186257053,12.502439295577881,-3.1020362586434733,333.0,-3.084804084095761,1.0,-12.129208616187421,-11.907670559270757,1.1249979452799406,0.9553828704531196,8065143.0,8065164.0,21.0,25.391124107418918,0.2790132331466007,0.2832751757941966,0.6534263411807615,-0.6728325475937671
97,8155.858138,3.7411162,1,98,2,2,2,1,2,2,46.00961538,n/a,n/a,8066746.0,8070488.0,0.0,0.0,0.0,8068389.0,8067496.0,8069489.0,8067496.0,8068089.0,8069495.0,8070488.0,3742.0,750.0,593.0,993.0,1993.0,-8069495.0,0.0,0.0,0.0,1.0,0.0,0.0,0.0,-0.6196142529387973,10.263442793092382,0.6646141707499973,0.7373063456757749,8068366.0,8068451.0,85.0,447.76434280055105,10.883299812991662,11.979603093337758,-0.006679289983672861,277.0,0.032079190989089665,0.0,0.0,0.0,0.0,0.0,0.0,0.0,0.0,0.0,0.0,0.0,0.0,0.0
98,8159.60761,3.5078103,1,99,2,1,2,1,5,2,46.00961538,n/a,n/a,8070495.0,8074004.0,0.0,0.0,0.0,8072488.0,8071012.0,8073005.0,8071012.0,8072205.0,8073012.0,8074005.0,3509.0,517.0,1193.0,993.0,1993.0,-8073012.0,0.0,0.0,0.0,1.0,0.0,0.0,0.0,-0.418845388858071,-11.949208944942633,0.6784602993072881,0.8515369062734328,8072473.0,8072513.0,40.0,577.708408910383,11.531662466763494,11.465073636052752,-3.1265832734480727,268.0,3.1056564693947433,1.0,-11.942285880663986,-11.028441395882743,0.8411523098554617,1.1353825416979098,8072515.0,8072536.0,21.0,194.381631048195,0.9600433176139277,1.3871417916096835,-0.31148865693009564,-0.26253133968442993
99,8163.123885,3.5493592,1,100,2,2,1,2,5,1,46.00961538,n/a,n/a,8074012.0,8077563.0,0.0,0.0,0.0,8076095.0,8074571.0,8076563.0,8074571.0,8075761.0,8076569.0,8077563.0,3551.0,559.0,1190.0,994.0,1992.0,-8076569.0,0.0,0.0,0.0,1.0,0.0,0.0,0.0,-0.12461515701562499,10.114596911101499,0.35653781035025656,-0.21115346049869735,8076073.0,8076144.0,71.0,447.9713138340859,10.25493720872407,11.233969391682631,0.05538616252599764,312.0,0.07185630010152544,0.0,0.0,0.0,0.0,0.0,0.0,0.0,0.0,0.0,0.0,0.0,0.0,0.0
100,8187.137058,3.5244655,2,1,2,2,2,1,4,1,46.00961538,n/a,n/a,8098027.0,8101551.0,0.0,0.0,0.0,8099816.0,8098550.0,8100551.0,8098550.0,8099549.0,8100558.0,8101552.0,3524.0,523.0,999.0,994.0,2001.0,-8100558.0,0.0,0.0,0.0,1.0,0.0,0.0,0.0,0.13153822129426843,9.339213711893168,-0.36692240676822757,-0.1211536248763013,8099790.0,8099866.0,76.0,400.961221189837,9.210954903500957,10.670155834640346,-0.026685393204838943,241.0,-0.04023800976671715,0.0,0.0,0.0,0.0,0.0,0.0,0.0,0.0,0.0,0.0,0.0,0.0,0.0
101,8190.669859,3.5078132,2,2,2,2,1,2,4,1,46.00961538,n/a,n/a,8101558.0,8105067.0,0.0,0.0,0.0,8103334.0,8102074.0,8104067.0,8102075.0,8103068.0,8104074.0,8105067.0,3509.0,517.0,993.0,993.0,1993.0,-8104074.0,0.0,0.0,0.0,1.0,0.0,0.0,0.0,-0.11769209273697762,10.630365199860606,-0.4049992603007802,-0.4119223245794236,8103311.0,8103382.0,71.0,438.5840753381645,10.748059522247681,12.162553624893324,0.0006441222941718597,243.0,0.03871604716910479,1.0,-0.11769209273697762,10.630365199860606,-0.4049992603007802,-0.4119223245794236,8103311.0,8103382.0,71.0,438.5840753381645,10.748059522247681,12.162553624893324,0.0006441222941718597,0.03871604716910479
102,8194.186001,3.5078189,2,3,2,2,1,2,1,2,46.00961538,n/a,n/a,8105073.0,8108583.0,0.0,0.0,0.0,8106717.0,8105590.0,8107583.0,8105590.0,8105983.0,8107590.0,8108583.0,3510.0,517.0,393.0,993.0,1993.0,-8107590.0,0.0,0.0,0.0,0.0,0.0,0.0,1.0,-0.2699995068671842,10.862287853195241,-0.23538418547395523,0.04153838567187631,8106697.0,8106764.0,67.0,429.0907725080709,11.135731137981718,12.521345523226355,-0.024870492811605093,714.0,0.07166199787004018,0.0,0.0,0.0,0.0,0.0,0.0,0.0,0.0,0.0,0.0,0.0,0.0,0.0
103,8197.702153,3.5078326,2,4,2,1,2,1,2,2,46.00961538,n/a,n/a,8108590.0,8112099.0,0.0,0.0,0.0,8109982.0,8109106.0,8111100.0,8109106.0,8109699.0,8111106.0,8112099.0,3509.0,516.0,593.0,993.0,1994.0,-8111106.0,0.0,0.0,0.0,1.0,0.0,0.0,0.0,-0.28730716756379865,-10.259981260953058,-0.010384596417967108,-0.19384579980208289,8109962.0,8110032.0,70.0,575.2401516734309,9.974361462575159,11.382185115404322,3.1231983383056043,263.0,3.091087527672956,0.0,0.0,0.0,0.0,0.0,0.0,0.0,0.0,0.0,0.0,0.0,0.0,0.0
104,8201.218318,3.516133,2,5,2,2,2,1,3,1,46.00961538,n/a,n/a,8112106.0,8115624.0,0.0,0.0,0.0,8113791.0,8112631.0,8114624.0,8112632.0,8113425.0,8114631.0,8115625.0,3518.0,526.0,793.0,994.0,1993.0,-8114631.0,0.0,0.0,0.0,1.0,0.0,0.0,0.0,0.0,9.917289579160093,-0.1730766069661447,0.18346120338411182,8113767.0,8113834.0,67.0,425.92477187266576,9.923696478990413,11.258457012356423,-0.03593565762467729,342.0,0.06769302269396865,1.0,0.0,9.917289579160093,-0.1730766069661447,0.18346120338411182,8113767.0,8113834.0,67.0,425.92477187266576,9.923696478990413,11.258457012356423,-0.03593565762467729,0.06769302269396865
105,8204.751147,3.5078471,2,6,2,2,2,2,4,1,46.00961538,n/a,n/a,8115640.0,8119148.0,0.0,0.0,0.0,8117457.0,8116157.0,8118148.0,8116157.0,8117147.0,8118155.0,8119148.0,3508.0,517.0,990.0,993.0,1991.0,-8118155.0,0.0,0.0,0.0,1.0,0.0,0.0,0.0,-0.3530762782109368,9.314982986917906,0.21461499263802103,0.7753831992083275,8117435.0,8117524.0,89.0,403.36133580095174,9.684308490312757,10.77050482498894,-0.0579372346484539,288.0,-0.053697926013909755,0.0,0.0,0.0,0.0,0.0,0.0,0.0,0.0,0.0,0.0,0.0,0.0,0.0
106,8208.267331,3.5078266,2,7,2,1,2,1,2,2,46.00961538,n/a,n/a,8119155.0,8122664.0,0.0,0.0,0.0,8120581.0,8119671.0,8121665.0,8119671.0,8120264.0,8121671.0,8122664.0,3509.0,516.0,593.0,993.0,1994.0,-8121671.0,0.0,0.0,0.0,1.0,0.0,0.0,0.0,-0.43269151741536177,-10.388057950108006,0.3426916817929658,0.0034615321393236813,8120555.0,8120640.0,85.0,572.894026763515,9.961144407326776,11.276709600933655,3.1075307284438103,291.0,3.082314091768522,1.0,-1.56461252697395,-0.46730683880859075,0.1626920105481776,0.21115346049869735,8121711.0,8121743.0,32.0,173.40130180586928,1.098375293518276,1.8376302277960888,-0.04413535798142533,0.12085033599844501
107,8211.783454,3.5078545,2,8,2,2,1,1,3,1,46.00961538,n/a,n/a,8122671.0,8126180.0,0.0,0.0,0.0,8124404.0,8123188.0,8125181.0,8123188.0,8123980.0,8125187.0,8126181.0,3509.0,517.0,792.0,994.0,1993.0,-8125187.0,0.0,0.0,0.0,1.0,0.0,0.0,0.0,-0.4465376459726526,10.630365199860606,0.3946146638828092,-0.2007688640807263,8124381.0,8124453.0,72.0,431.5947447684596,11.092892237888153,12.260559197940063,0.05369832717229438,401.0,0.08876837061808783,1.0,10.851903256777273,-33.26532385889301,-0.6473065100533828,18.726888873736858,8124874.0,8124937.0,63.0,18845.16204784564,48.183909919649665,56.53548614353692,-2.727795946379938,-2.5707591707410136
108,8215.299642,3.5078506,2,9,2,2,2,1,1,2,46.00961538,n/a,n/a,8126187.0,8129697.0,0.0,0.0,0.0,8127480.0,8126704.0,8128696.0,8126704.0,8127097.0,8128704.0,8129697.0,3510.0,517.0,393.0,993.0,1992.0,-8128704.0,0.0,0.0,0.0,1.0,0.0,0.0,0.0,-0.33923014965364207,11.007672203046804,0.3115378925390605,0.10038443204036315,8127455.0,8127532.0,77.0,414.23644072296923,11.348866850289482,12.544348424875087,0.01860676028160721,358.0,0.0618507847196763,1.0,-0.33923014965364207,11.007672203046804,0.3115378925390605,0.10038443204036315,8127455.0,8127532.0,77.0,414.23644072296923,11.348866850289482,12.544348424875087,0.01860676028160721,0.0618507847196763
109,8218.815979,3.5076586,2,10,2,1,2,2,5,2,46.00961538,n/a,n/a,8129704.0,8133213.0,0.0,0.0,0.0,8131653.0,8130220.0,8132212.0,8130220.0,8131413.0,8132220.0,8133213.0,3509.0,516.0,1193.0,993.0,1992.0,-8132220.0,0.0,0.0,0.0,1.0,0.0,0.0,0.0,-0.31846095681770786,-10.78613414613014,0.24923031403124998,0.6749987671679644,8131636.0,8131699.0,63.0,617.043658873916,10.476328592304496,11.380901256224949,-3.100940459179568,223.0,-3.087426985994569,0.0,0.0,0.0,0.0,0.0,0.0,0.0,0.0,0.0,0.0,0.0,0.0,0.0
110,8222.332059,3.5077456,2,11,2,1,2,2,3,1,46.00961538,n/a,n/a,8133220.0,8136729.0,0.0,0.0,0.0,8134853.0,8133736.0,8135729.0,8133736.0,8134529.0,8135736.0,8136729.0,3509.0,516.0,793.0,993.0,1993.0,-8135736.0,0.0,0.0,0.0,1.0,0.0,0.0,0.0,-0.44999917811197626,-10.658057456975191,0.6369219136354117,0.5296144173164012,8134836.0,8134896.0,60.0,571.8182067091518,10.208622273521243,10.999015513053163,3.1310810027888563,307.0,3.101928427909453,0.0,0.0,0.0,0.0,0.0,0.0,0.0,0.0,0.0,0.0,0.0,0.0,0.0
111,8225.848137,3.5080234,2,12,2,2,2,1,2,1,46.00961538,n/a,n/a,8136735.0,8140246.0,0.0,0.0,0.0,8138246.0,8137252.0,8139245.0,8137252.0,8137846.0,8139252.0,8140246.0,3511.0,517.0,594.0,994.0,1993.0,-8139252.0,0.0,0.0,0.0,1.0,0.0,0.0,0.0,-0.5538451422916632,9.346136776171814,0.2388457176132789,0.26307644258854074,8138223.0,8138292.0,69.0,428.1523316976256,9.900011571404178,10.680570177152731,-0.002447547560205268,377.0,0.04766018169641498,1.0,-0.5538451422916632,9.346136776171814,0.2388457176132789,0.26307644258854074,8138223.0,8138292.0,69.0,428.1523316976256,9.900011571404178,10.680570177152731,-0.002447547560205268,0.04766018169641498
112,8229.364314,3.7327861,2,13,2,2,2,2,4,2,46.00961538,n/a,n/a,8140252.0,8143986.0,0.0,0.0,0.0,8142245.0,8140995.0,8142986.0,8140995.0,8141985.0,8142993.0,8143986.0,3734.0,743.0,990.0,993.0,1991.0,-8142993.0,0.0,0.0,0.0,1.0,0.0,0.0,0.0,-0.3461532139322894,9.152290976369736,0.5503836101523394,0.9034598883632762,8142222.0,8142285.0,63.0,404.3499079141893,9.5050042027617,10.322366613364162,-0.03715490492824262,237.0,-0.058046910227649864,1.0,-0.7719216670690039,-0.7407678778150986,2.3365341940429536,2.2015344406093615,8143125.0,8143147.0,22.0,35.362072923319765,0.13854779685006688,0.22347668648994334,1.343997478741015,1.2882413743252985
113,8233.105434,3.7661108,2,14,2,2,2,1,5,1,46.00961538,n/a,n/a,8143993.0,8147761.0,0.0,0.0,0.0,8146303.0,8144769.0,8146760.0,8144769.0,8145959.0,8146767.0,8147761.0,3768.0,776.0,1190.0,994.0,1991.0,-8146767.0,0.0,0.0,0.0,1.0,0.0,0.0,0.0,0.020769192835938154,8.376907777161405,-0.15923047840885393,0.7615370706510368,8146281.0,8146348.0,67.0,422.0309801515571,8.406715465617625,9.71598303436266,-0.1097477998167499,322.0,-0.11282112384355,0.0,0.0,0.0,0.0,0.0,0.0,0.0,0.0,0.0,0.0,0.0,0.0,0.0
114,8236.879877,3.5078347,2,15,2,2,2,1,5,2,46.00961538,n/a,n/a,8147767.0,8151276.0,0.0,0.0,0.0,8149693.0,8148284.0,8150277.0,8148284.0,8149477.0,8150284.0,8151276.0,3509.0,517.0,1193.0,992.0,1993.0,-8150284.0,0.0,0.0,0.0,1.0,0.0,0.0,0.0,-0.09346136776171972,9.162675572787704,0.05884604636849078,1.0349981096575447,8149681.0,8149739.0,58.0,421.2451373216297,9.307467105118723,10.482471538906863,-0.1050716048753316,204.0,-0.10686466405290189,0.0,0.0,0.0,0.0,0.0,0.0,0.0,0.0,0.0,0.0,0.0,0.0,0.0
115,8240.396046,3.524505,2,16,2,1,2,1,3,2,46.00961538,n/a,n/a,8151283.0,8154810.0,0.0,0.0,0.0,8152883.0,8151817.0,8153810.0,8151817.0,8152610.0,8153816.0,8154810.0,3527.0,534.0,793.0,994.0,1993.0,-8153816.0,0.0,0.0,0.0,1.0,0.0,0.0,0.0,-0.4949990959231723,-9.54344410811322,0.38769159960416577,0.5642297387096302,8152872.0,8152939.0,67.0,368.2597711619589,9.050167006922347,9.709223107033369,-3.1220847995815286,262.0,-3.1048628364515065,0.0,0.0,0.0,0.0,0.0,0.0,0.0,0.0,0.0,0.0,0.0,0.0,0.0
116,8243.928875,3.5078208,2,17,2,1,2,2,4,1,46.00961538,n/a,n/a,8154816.0,8158326.0,0.0,0.0,0.0,8156626.0,8155333.0,8157326.0,8155333.0,8156326.0,8157333.0,8158326.0,3510.0,517.0,993.0,993.0,1993.0,-8157333.0,0.0,0.0,0.0,1.0,0.0,0.0,0.0,-0.4776914352265578,-10.703057374786392,0.19384579980208289,0.6299988493567683,8156604.0,8156665.0,61.0,528.1594299043226,10.23466355482906,10.854786931675601,-3.0989644647177066,278.0,3.0921438525366938,0.0,0.0,0.0,0.0,0.0,0.0,0.0,0.0,0.0,0.0,0.0,0.0,0.0
117,8247.445055,3.5078583,2,18,2,1,2,2,5,1,46.00961538,n/a,n/a,8158332.0,8161842.0,0.0,0.0,0.0,8160359.0,8158849.0,8160842.0,8158849.0,8160042.0,8160849.0,8161842.0,3510.0,517.0,1193.0,993.0,1993.0,-8160849.0,0.0,0.0,0.0,1.0,0.0,0.0,0.0,-0.3115378925390605,-11.177287277873624,0.8446138419947854,1.1388440738372314,8160334.0,8160393.0,59.0,567.297725213212,10.869732339585392,11.433354720155014,-3.1145205817298964,292.0,-3.092526277830223,1.0,6.985371857153599,6.79498758949084,2.9388407862851365,2.8973024006132624,8161222.0,8161245.0,23.0,29.41736654222709,0.19486304641391222,0.24476728490104058,2.9267772531881366,2.6399885994006786
118,8250.961246,3.732777,2,19,2,2,1,2,5,1,46.00961538,n/a,n/a,8161849.0,8165582.0,0.0,0.0,0.0,8163998.0,8162591.0,8164583.0,8162592.0,8163782.0,8164590.0,8165583.0,3733.0,743.0,1190.0,993.0,1992.0,-8164590.0,0.0,0.0,0.0,1.0,0.0,0.0,0.0,-0.11769209273697762,11.42651759190487,-0.21461499263802103,-0.3911531317434855,8163981.0,8164068.0,87.0,476.85179136345744,11.545559447577128,12.886947573716569,0.01529116192032315,199.0,0.05132658577108898,0.0,0.0,0.0,0.0,0.0,0.0,0.0,0.0,0.0,0.0,0.0,0.0,0.0
119,8254.702357,3.5078346,2,20,2,1,1,1,1,1,46.00961538,n/a,n/a,8165590.0,8169099.0,0.0,0.0,0.0,8166856.0,8166107.0,8168099.0,8166107.0,8166499.0,8168106.0,8169099.0,3509.0,517.0,392.0,993.0,1992.0,-8168106.0,0.0,0.0,0.0,1.0,0.0,0.0,0.0,0.024230724975261835,-11.87651677001685,-0.08653830348307236,0.26653797472786445,8166838.0,8166902.0,64.0,626.1858061641234,11.905983949165913,12.876987492063499,-3.1119329419850796,339.0,-3.1012594137013436,1.0,-0.15923047840885393,-1.7376891339400946,-0.5157682887591105,0.14538434985156315,8168111.0,8168164.0,53.0,238.61009457511682,1.71133121831028,2.7136579594310994,-2.744934412985187,-2.779089543201675
120,8258.21866,3.5076926,2,21,2,1,2,1,4,1,46.00961538,n/a,n/a,8169106.0,8172615.0,0.0,0.0,0.0,8170932.0,8169622.0,8171616.0,8169622.0,8170615.0,8171622.0,8172615.0,3509.0,516.0,993.0,993.0,1994.0,-8171622.0,0.0,0.0,0.0,1.0,0.0,0.0,0.0,-0.1488458819908829,-10.962672285235609,0.16961507482682103,0.5365374815950487,8170912.0,8170985.0,73.0,552.4130048258266,10.820049608578573,11.773554221646895,-3.107674808295069,297.0,-3.0859962961989806,1.0,-33.26532385889301,0.3946146638828092,18.726888873736858,0.8238446491588473,8171625.0,8171684.0,59.0,19410.3768475833,38.124932181765836,58.231130542749895,0.48882506584758656,0.6030557972329721
121,8261.734686,3.5078382,2,22,2,2,1,1,1,1,46.00961538,n/a,n/a,8172622.0,8176131.0,0.0,0.0,0.0,8173855.0,8173139.0,8175132.0,8173139.0,8173532.0,8175138.0,8176132.0,3509.0,517.0,393.0,994.0,1993.0,-8175138.0,0.0,0.0,0.0,1.0,0.0,0.0,0.0,-0.30461482826041314,9.363444436868429,0.5123067566197868,0.3946146638828092,8173838.0,8173904.0,66.0,430.8846712443348,9.66877558860151,11.00266490494118,0.012172689106336055,306.0,0.06895389506066377,1.0,-0.30461482826041314,9.363444436868429,0.5123067566197868,0.3946146638828092,8173838.0,8173904.0,66.0,430.8846712443348,9.66877558860151,11.00266490494118,0.012172689106336055,0.06895389506066377
122,8265.250982,3.7493103,2,23,2,1,2,1,5,1,46.00961538,n/a,n/a,8176138.0,8179889.0,0.0,0.0,0.0,8178414.0,8176898.0,8178889.0,8176898.0,8178088.0,8178896.0,8179889.0,3751.0,760.0,1190.0,993.0,1991.0,-8178896.0,0.0,0.0,0.0,1.0,0.0,0.0,0.0,-0.4223069209973947,-11.384979206232998,0.578075867266925,0.8653830348307235,8178390.0,8178461.0,71.0,556.2847766683411,10.966436478729376,11.836466577483435,-3.115390883757754,302.0,-3.0906849927383693,1.0,-1.2946130201067616,-0.6161527207994736,1.3223052772213453,1.325766809360669,8179824.0,8179843.0,19.0,73.33947489155757,0.6784691296889539,0.6880094466724928,-0.005101996546916228,0.1668029356244035
123,8269.008721,3.5077752,2,24,2,1,1,1,2,1,46.00961538,n/a,n/a,8179896.0,8183405.0,0.0,0.0,0.0,8181472.0,8180412.0,8182405.0,8180412.0,8181006.0,8182412.0,8183405.0,3509.0,516.0,594.0,993.0,1993.0,-8182412.0,0.0,0.0,0.0,1.0,0.0,0.0,0.0,-0.33576861751432235,-9.723443779358009,0.44999917811197626,0.3253840210963513,8181449.0,8181520.0,71.0,531.4156496446703,9.388502217161953,9.912593348946992,3.1283190969056185,443.0,3.1077132390253346,0.0,0.0,0.0,0.0,0.0,0.0,0.0,0.0,0.0,0.0,0.0,0.0,0.0
124,8272.524947,3.5077157,2,25,2,2,2,1,1,2,46.00961538,n/a,n/a,8183412.0,8186921.0,0.0,0.0,0.0,8184905.0,8183929.0,8185922.0,8183929.0,8184321.0,8185928.0,8186921.0,3509.0,517.0,392.0,993.0,1993.0,-8185928.0,0.0,0.0,0.0,0.0,0.0,0.0,1.0,-0.543460545873696,11.564978877477786,0.6611526386106736,1.166536330951815,8184881.0,8184954.0,73.0,470.37546166095655,12.118981720650327,13.120085404977425,-0.041713924433671445,560.0,-0.06600656327326526,0.0,0.0,0.0,0.0,0.0,0.0,0.0,0.0,0.0,0.0,0.0,0.0,0.0
125,8276.040984,3.5078371,2,26,2,2,2,2,4,1,46.00961538,n/a,n/a,8186928.0,8190438.0,0.0,0.0,0.0,8188711.0,8187445.0,8189438.0,8187445.0,8188437.0,8189445.0,8190438.0,3510.0,517.0,992.0,993.0,1993.0,-8189445.0,0.0,0.0,0.0,1.0,0.0,0.0,0.0,-0.3634608746289039,9.159214040648376,0.3115378925390605,0.6196142529387973,8188693.0,8188754.0,61.0,465.89302175340987,9.527657035488227,10.630513984961498,-0.032340592169078176,256.0,-0.03647778389938192,1.0,-0.3634608746289039,9.159214040648376,0.3115378925390605,0.6196142529387973,8188693.0,8188754.0,61.0,465.89302175340987,9.527657035488227,10.630513984961498,-0.032340592169078176,-0.03647778389938192
126,8279.557276,3.691032,2,27,2,1,2,2,1,1,46.00961538,n/a,n/a,8190444.0,8194137.0,0.0,0.0,0.0,8191977.0,8191144.0,8193137.0,8191144.0,8191537.0,8193144.0,8194137.0,3693.0,700.0,393.0,993.0,1993.0,-8193144.0,0.0,0.0,0.0,1.0,0.0,0.0,0.0,-0.31499942467838415,-10.876133981752536,0.4292299852760381,0.1626920105481776,8191963.0,8192028.0,65.0,591.3588634836948,10.56449741467136,11.475956374015869,3.1163603828018074,426.0,3.080020535647096,1.0,-0.8411523098554617,0.4119223245794236,0.9069214205025999,0.9103829526419196,8192845.0,8192877.0,32.0,98.82894853042866,1.2530794155475038,1.2645020020042004,-0.002762423912529947,-0.13454139942431215
127,8283.256619,3.5078203,2,28,2,1,2,2,1,2,46.00961538,n/a,n/a,8194144.0,8197653.0,0.0,0.0,0.0,8195387.0,8194660.0,8196654.0,8194660.0,8195053.0,8196660.0,8197653.0,3509.0,516.0,393.0,993.0,1994.0,-8196660.0,0.0,0.0,0.0,1.0,0.0,0.0,0.0,-0.328845553235675,-10.474596253591079,0.3253840210963513,0.2284611211953118,8195369.0,8195428.0,59.0,645.6015219330122,10.146213644620705,11.762321863757409,3.132039890615086,316.0,-3.0994967709191026,1.0,-33.26532385889301,-0.6611526386106736,18.726888873736858,1.914227273045561,8195937.0,8196006.0,69.0,12209.598240009338,36.683750776888225,51.24723314319838,0.4760968497599949,0.6067749905589026
128,8286.772778,3.507836,2,29,2,1,2,2,4,2,46.00961538,n/a,n/a,8197660.0,8201169.0,0.0,0.0,0.0,8199469.0,8198176.0,8200170.0,8198176.0,8199169.0,8200176.0,8201170.0,3509.0,516.0,993.0,994.0,1994.0,-8200176.0,0.0,0.0,0.0,1.0,0.0,0.0,0.0,-0.2319226533346355,-10.664980521253838,0.10730749631901051,0.7165371528398408,8199448.0,8199514.0,66.0,531.2950683605399,10.450830457419892,11.506499389444054,-3.083264729863787,279.0,-3.0717426637670093,0.0,0.0,0.0,0.0,0.0,0.0,0.0,0.0,0.0,0.0,0.0,0.0,0.0
129,8290.289076,3.6410056,2,30,2,1,2,2,5,1,46.00961538,n/a,n/a,8201176.0,8204819.0,0.0,0.0,0.0,8203302.0,8201826.0,8203819.0,8201826.0,8203019.0,8203826.0,8204819.0,3643.0,650.0,1193.0,993.0,1993.0,-8203826.0,0.0,0.0,0.0,1.0,0.0,0.0,0.0,-0.5330759494557249,-11.14613348861972,0.1488458819908829,0.4776914352265578,8203284.0,8203363.0,79.0,503.97036464547097,10.618150956145264,11.639419190461712,-3.110617567065474,265.0,-3.089822396601659,0.0,0.0,0.0,0.0,0.0,0.0,0.0,0.0,0.0,0.0,0.0,0.0,0.0
130,8293.938416,3.507818,2,31,2,1,1,1,3,2,46.00961538,n/a,n/a,8204825.0,8208335.0,0.0,0.0,0.0,8206469.0,8205342.0,8207335.0,8205342.0,8206135.0,8207342.0,8208335.0,3510.0,517.0,793.0,993.0,1993.0,-8207342.0,0.0,0.0,0.0,1.0,0.0,0.0,0.0,-0.5919219958242157,-10.879595513891855,0.17999967124479208,-0.1211536248763013,8206453.0,8206525.0,72.0,617.3162699999222,10.292080437021214,11.168755617001985,3.112327794217652,318.0,3.0947761273953085,1.0,-10.893441642449151,-10.571519153492119,-0.12461515701562499,-0.24576878189192627,8206527.0,8206548.0,21.0,40.25659191547777,0.34396553565285815,0.3549041227549428,0.3599485260274036,0.3587706702705735
131,8297.454564,3.5078811,2,32,2,1,2,1,3,1,46.00961538,n/a,n/a,8208342.0,8211851.0,0.0,0.0,0.0,8209958.0,8208858.0,8210852.0,8208858.0,8209651.0,8210858.0,8211851.0,3509.0,516.0,793.0,993.0,1994.0,-8210858.0,0.0,0.0,0.0,1.0,0.0,0.0,0.0,-0.5642297387096302,-10.602672942746024,0.4880760316445289,0.578075867266925,8209934.0,8210000.0,66.0,544.0402209642914,10.038846643468387,10.78297264631017,-3.1326273765544137,283.0,3.1049883875107005,1.0,-0.5642297387096302,-10.602672942746024,0.4880760316445289,0.578075867266925,8209934.0,8210000.0,66.0,544.0402209642914,10.038846643468387,10.78297264631017,-3.1326273765544137,3.1049883875107005
132,8300.970765,3.5078317,2,33,2,1,1,2,5,2,46.00961538,n/a,n/a,8211858.0,8215367.0,0.0,0.0,0.0,8213867.0,8212374.0,8214367.0,8212374.0,8213567.0,8214374.0,8215368.0,3509.0,516.0,1193.0,994.0,1993.0,-8214374.0,0.0,0.0,0.0,1.0,0.0,0.0,0.0,-0.22499958905598813,-9.30113685836062,0.020769192835938154,-0.5019221602018197,8213853.0,8213914.0,61.0,518.6788885932742,9.091175610546799,10.147198511895441,3.084066567537578,286.0,3.065788816228654,0.0,0.0,0.0,0.0,0.0,0.0,0.0,0.0,0.0,0.0,0.0,0.0,0.0
133,8304.486931,3.5078322,2,34,2,2,2,2,3,1,46.00961538,n/a,n/a,8215374.0,8218884.0,0.0,0.0,0.0,8216957.0,8215891.0,8217883.0,8215891.0,8216684.0,8217890.0,8218884.0,3510.0,517.0,793.0,994.0,1992.0,-8217890.0,0.0,0.0,0.0,1.0,0.0,0.0,0.0,-0.43269151741536177,8.556907448406196,-0.3807685353255184,0.04153838567187631,8216934.0,8217007.0,73.0,365.62931055260265,8.999512914698347,10.136661731243644,-0.046942769659164905,250.0,-0.054665045823612486,1.0,-0.29076869970312236,-0.713075620700517,-0.2388457176132789,-0.21461499263802103,8218379.0,8218399.0,20.0,62.21402553907305,0.4230014935613423,0.42080045368159275,-3.084278444483759,2.8666828121091164
134,8308.003225,3.5077237,2,35,2,2,2,2,5,1,46.00961538,n/a,n/a,8218890.0,8222399.0,0.0,0.0,0.0,8220990.0,8219407.0,8221400.0,8219407.0,8220600.0,8221407.0,8222399.0,3509.0,517.0,1193.0,992.0,1993.0,-8221407.0,0.0,0.0,0.0,1.0,0.0,0.0,0.0,-0.6819218314466118,7.823062634869741,-0.46384530666926704,0.6473065100533828,8220967.0,8221032.0,65.0,430.95804822198545,8.577261750237572,9.784925428625554,-0.1299113272144713,367.0,-0.12698772211915468,1.0,-0.3461532139322894,-0.3461532139322894,1.0349981096575447,1.0730749631900973,8222260.0,8222280.0,20.0,17.546398328746516,0.03807685353255263,0.11522275324229103,-1.5707963267948966,-0.999458846961274
135,8311.519275,3.5078253,2,36,2,1,2,1,3,1,46.00961538,n/a,n/a,8222406.0,8225915.0,0.0,0.0,0.0,8224099.0,8222923.0,8224916.0,8222923.0,8223716.0,8224923.0,8225916.0,3509.0,517.0,793.0,993.0,1993.0,-8224923.0,0.0,0.0,0.0,1.0,0.0,0.0,0.0,-0.5503836101523394,-10.664980521253838,-0.39807619602213284,-0.19730733194140657,8224079.0,8224174.0,95.0,573.1278228398257,10.116589287445064,11.389274526761993,-3.1217458416533006,363.0,3.097204427621385,1.0,1.4780742234908775,0.951921338313796,0.3946146638828092,0.4084607924401,8225151.0,8225176.0,25.0,73.99910520719263,0.5263350395481875,0.5659155136589207,-3.1152829363368726,2.88177828374396
136,8315.03543,3.5078488,2,37,2,2,2,2,2,1,46.00961538,n/a,n/a,8225922.0,8229432.0,0.0,0.0,0.0,8227416.0,8226439.0,8228432.0,8226439.0,8227032.0,8228439.0,8229432.0,3510.0,517.0,593.0,993.0,1993.0,-8228439.0,0.0,0.0,0.0,1.0,0.0,0.0,0.0,-0.6403834457747355,9.595367090203064,0.21807652477734077,0.4742299030872381,8227392.0,8227447.0,55.0,446.2964512790699,10.23895520001867,11.507004429384974,-0.025020141304671326,360.0,-0.04423490150294727,1.0,0.24923031403124998,-0.21115346049869735,0.21807652477734077,0.2596149104492171,8229185.0,8229205.0,20.0,40.58596203515875,0.46225388839323667,0.4678193773106698,-3.0516107323868673,2.963062779761586
137,8318.551611,3.50795,2,38,2,1,1,2,3,1,46.00961538,n/a,n/a,8229438.0,8232948.0,0.0,0.0,0.0,8231098.0,8229955.0,8231948.0,8229955.0,8230748.0,8231955.0,8232948.0,3510.0,517.0,793.0,993.0,1993.0,-8231955.0,0.0,0.0,0.0,1.0,0.0,0.0,0.0,-0.8238446491588473,-10.03498167189707,0.418845388858071,0.3599993424895802,8231073.0,8231144.0,71.0,462.8353110906748,9.211324992031926,9.952691690757204,3.1352041647784823,325.0,-3.1123734144634643,1.0,-2.3815341118541498,-1.8173043731445195,0.758075538511713,0.7442294099544223,8232210.0,8232233.0,23.0,47.15962613824267,0.5643996042879217,0.5316354443412524,0.02453495306273449,0.14373867314832978
138,8322.067765,3.507802,2,39,2,2,2,2,2,2,46.00961538,n/a,n/a,8232955.0,8236464.0,0.0,0.0,0.0,8233688.0,8233471.0,8235464.0,8233471.0,8234064.0,8235471.0,8236465.0,3509.0,516.0,593.0,994.0,1993.0,-8235471.0,0.0,0.0,0.0,0.0,1.0,0.0,0.0,0.0,0.0,0.0,0.0,0.0,0.0,0.0,0.0,0.0,0.0,0.0,0.0,0.0,0.0,0.0,0.0,0.0,0.0,0.0,0.0,0.0,0.0,0.0,0.0,0.0,0.0
139,8325.584045,3.5077361,2,40,2,1,2,1,2,2,46.00961538,n/a,n/a,8236471.0,8239980.0,0.0,0.0,0.0,8237904.0,8236987.0,8238980.0,8236987.0,8237581.0,8238987.0,8239981.0,3509.0,516.0,594.0,994.0,1993.0,-8238987.0,0.0,0.0,0.0,1.0,0.0,0.0,0.0,-0.1211536248763013,-10.166519893191342,0.28038410328515523,0.19384579980208289,8237883.0,8237956.0,73.0,605.2450973448362,10.045739014257308,11.543915424711175,3.132978118242293,302.0,3.107702244268996,0.0,0.0,0.0,0.0,0.0,0.0,0.0,0.0,0.0,0.0,0.0,0.0,0.0
140,8329.100108,3.5078143,2,41,2,2,1,1,1,2,46.00961538,n/a,n/a,8239987.0,8243496.0,0.0,0.0,0.0,8241353.0,8240504.0,8242496.0,8240504.0,8240897.0,8242503.0,8243496.0,3509.0,517.0,393.0,993.0,1992.0,-8242503.0,0.0,0.0,0.0,1.0,0.0,0.0,0.0,-0.31499942467838415,9.356521372589782,0.30461482826041314,0.5192298208984342,8241326.0,8241420.0,94.0,427.0333792024845,9.673901701333111,10.594976348767435,-0.02218676680218148,429.0,-0.04968103489893064,0.0,0.0,0.0,0.0,0.0,0.0,0.0,0.0,0.0,0.0,0.0,0.0,0.0
141,8332.616421,3.5076662,2,42,2,1,1,1,1,1,46.00961538,n/a,n/a,8243503.0,8247012.0,0.0,0.0,0.0,8244879.0,8244020.0,8246013.0,8244020.0,8244412.0,8246019.0,8247012.0,3509.0,517.0,392.0,993.0,1993.0,-8246019.0,0.0,0.0,0.0,1.0,0.0,0.0,0.0,-0.20769192835937367,-10.616519071303319,0.5919219958242157,0.4465376459726526,8244861.0,8244952.0,91.0,607.3654660056268,10.409842414795163,11.667966871788023,3.127626152399135,449.0,3.094404662193584,0.0,0.0,0.0,0.0,0.0,0.0,0.0,0.0,0.0,0.0,0.0,0.0,0.0
142,8336.132432,3.6078017,2,43,2,1,2,2,1,2,46.00961538,n/a,n/a,8247019.0,8250628.0,0.0,0.0,0.0,8248419.0,8247636.0,8249629.0,8247636.0,8248029.0,8249635.0,8250628.0,3609.0,617.0,393.0,993.0,1993.0,-8249635.0,0.0,0.0,0.0,1.0,0.0,0.0,0.0,-0.5053836923411433,-10.588826814188733,0.6957679600039025,0.5261528851770815,8248407.0,8248465.0,58.0,515.2847124029862,10.08486958096851,11.09731141155758,3.1247730932561537,378.0,3.0922884837628604,1.0,-11.343440820561126,-33.26532385889301,0.5849989315455684,18.726888873736858,8248955.0,8249005.0,50.0,12549.92256277224,28.455177501131228,39.38306754986484,-2.450265419721782,-2.2521535982290857
143,8339.748568,3.8744204,2,44,2,2,1,2,1,1,46.00961538,n/a,n/a,8250635.0,8254512.0,0.0,0.0,0.0,8251979.0,8251519.0,8253511.0,8251519.0,8251912.0,8253519.0,8254512.0,3877.0,884.0,393.0,993.0,1992.0,-8253519.0,0.0,0.0,0.0,1.0,0.0,0.0,0.0,-0.7961523920442657,10.865749385334569,0.827306181298171,1.311920680803376,8252336.0,8252419.0,83.0,294.81618577464246,11.67196659857979,12.173035276920755,-0.04153146250069519,424.0,-0.06601961747867659,1.0,33.05417039839432,-33.26532385889301,4.423838074054659,18.726888873736858,8253365.0,8253427.0,62.0,24280.166339379146,67.8443260761035,74.41880612068714,-2.9291772580061153,-2.714314587550016
144,8343.63146,3.8160352,2,45,2,2,1,2,5,1,46.00961538,n/a,n/a,8254518.0,8258336.0,0.0,0.0,0.0,8256761.0,8255344.0,8257336.0,8255344.0,8256535.0,8257343.0,8258336.0,3818.0,826.0,1191.0,993.0,1992.0,-8257343.0,0.0,1.0,0.0,0.0,0.0,0.0,0.0,0.0,0.0,0.0,0.0,0.0,0.0,0.0,0.0,0.0,0.0,0.0,0.0,0.0,0.0,0.0,0.0,0.0,0.0,0.0,0.0,0.0,0.0,0.0,0.0,0.0,0.0
145,8347.455822,3.507801,2,46,2,2,1,1,1,2,46.00961538,n/a,n/a,8258343.0,8261852.0,0.0,0.0,0.0,8259626.0,8258859.0,8260852.0,8258859.0,8259252.0,8260859.0,8261852.0,3509.0,516.0,393.0,993.0,1993.0,-8260859.0,0.0,0.0,0.0,1.0,0.0,0.0,0.0,0.0034615321393236813,10.000366350503844,-0.10038443204036315,0.36692240676822757,8259611.0,8259689.0,78.0,451.2846916671642,10.007821023031791,11.417951257126163,-0.04671114916863134,359.0,-0.0719122555187314,0.0,0.0,0.0,0.0,0.0,0.0,0.0,0.0,0.0,0.0,0.0,0.0,0.0
146,8350.972109,3.5077134,2,47,2,2,1,1,3,2,46.00961538,n/a,n/a,8261859.0,8265368.0,0.0,0.0,0.0,8263568.0,8262375.0,8264369.0,8262375.0,8263168.0,8264375.0,8265368.0,3509.0,516.0,793.0,993.0,1994.0,-8264375.0,0.0,0.0,0.0,1.0,0.0,0.0,0.0,-0.1903842676627592,10.249596664535087,-0.1211536248763013,-0.15230741413020657,8263547.0,8263616.0,69.0,488.7469413694335,10.44002741487011,11.942276850576729,0.0029840760231613995,379.0,0.07223677496941222,0.0,0.0,0.0,0.0,0.0,0.0,0.0,0.0,0.0,0.0,0.0,0.0,0.0
147,8354.488261,3.507744,2,48,2,2,1,2,1,1,46.00961538,n/a,n/a,8265375.0,8268885.0,0.0,0.0,0.0,8266858.0,8265891.0,8267885.0,8265891.0,8266285.0,8267891.0,8268885.0,3510.0,516.0,394.0,994.0,1994.0,-8267891.0,0.0,0.0,0.0,0.0,0.0,0.0,1.0,-0.2284611211953118,10.104212314683531,0.33576861751432235,0.4292299852760381,8266841.0,8266907.0,66.0,424.08909672958305,10.333096116836433,11.592494904160663,-0.009044979461005808,556.0,0.054372193070847695,0.0,0.0,0.0,0.0,0.0,0.0,0.0,0.0,0.0,0.0,0.0,0.0,0.0
148,8358.004317,3.5079169,2,49,2,1,1,1,2,1,46.00961538,n/a,n/a,8268891.0,8272401.0,0.0,0.0,0.0,8270508.0,8269408.0,8271400.0,8269408.0,8270001.0,8271407.0,8272401.0,3510.0,517.0,593.0,994.0,1992.0,-8271407.0,0.0,0.0,0.0,1.0,0.0,0.0,0.0,-0.0692306427864579,-9.81690514711973,-0.20423039622005,-0.35653781035025656,8270492.0,8270569.0,77.0,570.3363701386321,9.748864333389195,11.047497040815989,3.1259689249693166,491.0,3.1108813096090406,0.0,0.0,0.0,0.0,0.0,0.0,0.0,0.0,0.0,0.0,0.0,0.0,0.0
149,8361.520489,3.5078288,2,50,2,1,1,1,3,1,46.00961538,n/a,n/a,8272407.0,8275916.0,0.0,0.0,0.0,8274083.0,8272924.0,8274917.0,8272924.0,8273717.0,8274923.0,8275916.0,3509.0,517.0,793.0,993.0,1993.0,-8274923.0,0.0,0.0,0.0,1.0,0.0,0.0,0.0,-0.11423056059765394,-10.253058196674415,-0.22153805691666445,-0.32192248895702763,8274065.0,8274123.0,58.0,536.5750112313126,10.139324576532204,10.955633289093413,3.1316919870018047,348.0,3.098292726452609,0.0,0.0,0.0,0.0,0.0,0.0,0.0,0.0,0.0,0.0,0.0,0.0,0.0
150,8365.036655,3.4995173,2,51,2,1,2,2,2,1,46.00961538,n/a,n/a,8275923.0,8279424.0,0.0,0.0,0.0,8277500.0,8276434.0,8278425.0,8276434.0,8277023.0,8278432.0,8279425.0,3501.0,511.0,589.0,993.0,1991.0,-8278432.0,0.0,0.0,0.0,1.0,0.0,0.0,0.0,-0.4776914352265578,-10.124981507519466,0.19384579980208289,0.1903842676627592,8277474.0,8277543.0,69.0,568.6268256341602,9.647290693306905,10.810901323230603,3.1412338448502575,451.0,3.1044421797061017,1.0,-2.367687983296859,-2.018073237225246,0.917306016920567,1.1007672203046808,8278703.0,8278725.0,22.0,37.14320585967826,0.3948271568900317,0.3982116242429589,-0.48325293985801077,0.4208721609905129
151,8368.544506,3.7161069,2,52,2,2,1,1,3,2,46.00961538,n/a,n/a,8279431.0,8283149.0,0.0,0.0,0.0,8281324.0,8280158.0,8282149.0,8280158.0,8280948.0,8282156.0,8283149.0,3718.0,727.0,790.0,993.0,1991.0,-8282156.0,0.0,0.0,0.0,1.0,0.0,0.0,0.0,-0.5503836101523394,8.231523427309842,0.28384563542447894,0.062307578507810525,8281267.0,8281369.0,102.0,312.8641270130228,8.784700924066236,9.962347229098205,0.025221296411864203,319.0,0.05283873200969511,1.0,15.836509537402241,-33.26532385889301,-1.2703822951315038,18.726888873736858,8282088.0,8282135.0,47.0,20709.032095900435,53.017741342675,62.1270962877013,-2.7548423439944085,-2.57841027816494
152,8372.269159,3.6909432,2,53,2,1,1,2,2,1,46.00961538,n/a,n/a,8283156.0,8286848.0,0.0,0.0,0.0,8284915.0,8283856.0,8285848.0,8283856.0,8284449.0,8285855.0,8286848.0,3692.0,700.0,593.0,993.0,1992.0,-8285855.0,0.0,0.0,0.0,1.0,0.0,0.0,0.0,-0.5746143351276013,-10.838057128219983,0.03461532139322895,0.079615239204425,8284901.0,8284964.0,63.0,504.3489811606987,10.263541443365588,11.24796466067678,-3.1372081960187317,452.0,3.095722203252954,1.0,-1.6511508304570222,-1.4815357556301971,1.3534590664752524,1.0661518989114518,8285557.0,8285577.0,20.0,50.364334385576285,0.33363855014377947,0.3503508319885019,1.0374941440655148,1.0541011880326199
153,8375.968558,3.5077107,2,54,2,2,2,2,4,2,46.00961538,n/a,n/a,8286855.0,8290364.0,0.0,0.0,0.0,8288665.0,8287372.0,8289365.0,8287372.0,8288365.0,8289371.0,8290364.0,3509.0,517.0,993.0,993.0,1993.0,-8289371.0,0.0,0.0,0.0,1.0,0.0,0.0,0.0,-0.5642297387096302,9.394598226122339,0.27346103900650787,0.7788447313476512,8288648.0,8288712.0,64.0,408.85214596459815,9.971643149932895,10.985398438512414,-0.05070381041590293,283.0,-0.06906244689254788,1.0,9.363444436868429,9.54344410811322,0.7719216670690039,0.7788447313476512,8288714.0,8288734.0,20.0,39.38311614493995,0.18013275789605707,0.2386700680624643,-0.03844259002119638,0.34009711950975624
154,8379.484603,3.5078215,2,55,2,2,1,1,2,1,46.00961538,n/a,n/a,8290371.0,8293880.0,0.0,0.0,0.0,8291914.0,8290888.0,8292881.0,8290888.0,8291481.0,8292887.0,8293881.0,3509.0,517.0,593.0,994.0,1993.0,-8292887.0,0.0,0.0,0.0,1.0,0.0,0.0,0.0,-0.3530762782109368,8.726522523233013,-0.03807685353255263,0.20769192835937367,8291895.0,8291950.0,55.0,388.4951952453975,9.08292445687704,10.412815716837581,-0.027061634500558866,414.0,-0.05254811734705707,1.0,8.726522523233013,8.9203683230351,0.22153805691666445,0.32192248895702763,8291953.0,8291972.0,19.0,42.42632938284677,0.2182961939589809,0.25701730446680193,-0.4778310549921017,-0.44557728697458465
155,8383.000753,3.6911573,2,56,2,2,1,1,3,1,46.00961538,n/a,n/a,8293887.0,8297580.0,0.0,0.0,0.0,8295770.0,8294587.0,8296580.0,8294587.0,8295381.0,8296587.0,8297580.0,3693.0,700.0,794.0,993.0,1993.0,-8296587.0,0.0,0.0,0.0,1.0,0.0,0.0,0.0,-0.15230741413020657,10.516134639262951,0.3911531317434855,0.4292299852760381,8295753.0,8295828.0,75.0,392.43803397592706,10.668510003434527,11.80827705197363,-0.00356909581191733,372.0,0.06071822465852306,0.0,0.0,0.0,0.0,0.0,0.0,0.0,0.0,0.0,0.0,0.0,0.0,0.0
156,8386.700244,3.5078188,2,57,2,2,1,2,1,1,46.00961538,n/a,n/a,8297587.0,8301096.0,0.0,0.0,0.0,8299013.0,8298103.0,8300097.0,8298103.0,8298496.0,8300103.0,8301096.0,3509.0,516.0,393.0,993.0,1994.0,-8300103.0,0.0,0.0,0.0,1.0,0.0,0.0,0.0,-0.5849989315455684,10.903826238867117,0.10730749631901051,0.5053836923411433,8298990.0,8299075.0,85.0,446.7019714295032,11.495719570959773,12.928282678371092,-0.03463513466130756,494.0,-0.06054821726177793,1.0,9.252675408410095,-33.26532385889301,0.26307644258854074,18.726888873736858,8299452.0,8299488.0,36.0,19742.727131373154,46.35399261322605,59.22818139411946,-2.731905987251351,-2.5680007503650417
157,8390.216392,3.5078371,2,58,2,2,2,1,1,1,46.00961538,n/a,n/a,8301103.0,8304612.0,0.0,0.0,0.0,8302679.0,8301620.0,8303613.0,8301620.0,8302013.0,8303620.0,8304612.0,3509.0,517.0,393.0,992.0,1993.0,-8303620.0,0.0,0.0,0.0,0.0,0.0,0.0,1.0,-0.38769159960416577,10.23921206811712,0.2423072497526026,0.8999983562239525,8302658.0,8302720.0,62.0,417.2406807521444,10.64723622141256,11.979515073903087,-0.0618104142081142,645.0,-0.08244533777669652,0.0,0.0,0.0,0.0,0.0,0.0,0.0,0.0,0.0,0.0,0.0,0.0,0.0
158,8393.732561,3.5078687,2,59,2,1,2,2,4,2,46.00961538,n/a,n/a,8304619.0,8308128.0,0.0,0.0,0.0,8306019.0,8305136.0,8307129.0,8305136.0,8306128.0,8307136.0,8308129.0,3509.0,517.0,992.0,993.0,1993.0,-8307136.0,0.0,0.0,0.0,1.0,0.0,0.0,0.0,-0.5261528851770815,-12.599976987135335,0.6749987671679644,0.46384530666926704,8306499.0,8306583.0,84.0,425.80753820067497,12.075670342838473,12.76534678034794,3.1241059041011785,371.0,3.10280614520546,1.0,-0.13153822129426843,-0.6715372350286407,1.1942285880663985,1.0903826238867118,8307693.0,8307718.0,25.0,45.470825786286134,0.5498935525267628,0.5701554304836273,2.951604365671078,2.7622136717156773
159,8397.248754,3.8994499,2,60,2,2,2,1,4,2,46.00961538,n/a,n/a,8308135.0,8312037.0,0.0,0.0,0.0,8310535.0,8309045.0,8311036.0,8309045.0,8310035.0,8311043.0,8312037.0,3902.0,910.0,990.0,994.0,1991.0,-8311043.0,0.0,1.0,0.0,0.0,0.0,0.0,0.0,0.0,0.0,0.0,0.0,0.0,0.0,0.0,0.0,0.0,0.0,0.0,0.0,0.0,0.0,0.0,0.0,0.0,0.0,0.0,0.0,0.0,0.0,0.0,0.0,0.0,0.0
160,8401.156515,3.5078566,2,61,2,1,1,2,2,2,46.00961538,n/a,n/a,8312043.0,8315552.0,0.0,0.0,0.0,8313753.0,8312560.0,8314552.0,8312560.0,8313153.0,8314559.0,8315552.0,3509.0,517.0,593.0,993.0,1992.0,-8314559.0,0.0,0.0,0.0,0.0,0.0,0.0,1.0,-0.4880760316445289,-10.886518578170502,0.48115296736588153,0.26653797472786445,8313731.0,8313806.0,75.0,543.7740266679828,10.40065704599794,11.1586723398098,3.120956435621099,578.0,3.1012544103478463,0.0,0.0,0.0,0.0,0.0,0.0,0.0,0.0,0.0,0.0,0.0,0.0,0.0
161,8404.672704,3.6911281,2,62,2,2,1,1,4,1,46.00961538,n/a,n/a,8315559.0,8319252.0,0.0,0.0,0.0,8317702.0,8316259.0,8318252.0,8316259.0,8317252.0,8318259.0,8319253.0,3693.0,700.0,993.0,994.0,1993.0,-8318259.0,0.0,0.0,0.0,1.0,0.0,0.0,0.0,0.05884604636849078,11.502671298969977,-0.08653830348307236,-0.33576861751432235,8317683.0,8317750.0,67.0,462.5785102352866,11.44653887258116,12.43273251285264,0.0217751421284669,431.0,0.05627070586443123,0.0,0.0,0.0,0.0,0.0,0.0,0.0,0.0,0.0,0.0,0.0,0.0,0.0
162,8408.372302,3.5743593,2,63,2,1,2,2,1,1,46.00961538,n/a,n/a,8319259.0,8322834.0,0.0,0.0,0.0,8320735.0,8319842.0,8321835.0,8319842.0,8320235.0,8321842.0,8322835.0,3575.0,583.0,393.0,993.0,1993.0,-8321842.0,0.0,0.0,0.0,1.0,0.0,0.0,0.0,0.020769192835938154,-9.84459740423431,0.1730766069661447,-0.1349997534335921,8320718.0,8320784.0,66.0,635.1921955612964,9.870175739997064,11.123632856473836,3.1103747286041314,483.0,3.088666123615982,0.0,0.0,0.0,0.0,0.0,0.0,0.0,0.0,0.0,0.0,0.0,0.0,0.0
163,8411.955131,3.5078682,2,64,2,1,2,1,1,2,46.00961538,n/a,n/a,8322842.0,8326351.0,0.0,0.0,0.0,8324268.0,8323358.0,8325351.0,8323358.0,8323751.0,8325358.0,8326351.0,3509.0,516.0,393.0,993.0,1993.0,-8325358.0,0.0,0.0,0.0,0.0,0.0,0.0,1.0,-0.623075785078121,-10.294596582346287,0.5607682065703105,0.4119223245794236,8324253.0,8324338.0,85.0,459.32269249540514,9.67266610757222,10.941220291820299,3.1262037468079042,502.0,3.09253480269116,0.0,0.0,0.0,0.0,0.0,0.0,0.0,0.0,0.0,0.0,0.0,0.0,0.0
164,8415.471175,3.5661459,2,65,2,1,2,2,4,1,46.00961538,n/a,n/a,8326358.0,8329925.0,0.0,0.0,0.0,8328217.0,8326934.0,8328925.0,8326935.0,8327924.0,8328932.0,8329925.0,3567.0,577.0,989.0,993.0,1991.0,-8328932.0,0.0,0.0,0.0,1.0,0.0,0.0,0.0,-0.21115346049869735,-10.651134392696548,0.38769159960416577,0.9276906133385341,8328198.0,8328273.0,75.0,556.8265951432074,10.453937095634773,11.554134358933416,-3.0899145691073637,274.0,-3.077435852445247,0.0,0.0,0.0,0.0,0.0,0.0,0.0,0.0,0.0,0.0,0.0,0.0,0.0
165,8419.045637,3.5744939,2,66,2,2,1,1,1,1,46.00961538,n/a,n/a,8329932.0,8333508.0,0.0,0.0,0.0,8331415.0,8330515.0,8332508.0,8330515.0,8330909.0,8332515.0,8333508.0,3576.0,583.0,394.0,993.0,1993.0,-8332515.0,0.0,0.0,0.0,1.0,0.0,0.0,0.0,-0.15576894626953025,11.270748645635342,0.5573066744309868,0.6369219136354117,8331395.0,8331473.0,78.0,439.11687506239656,11.42679495153497,12.70612461452156,-0.006967472831041006,486.0,0.05042094925673861,1.0,-0.1211536248763013,-0.5088452244804671,0.9588444025924433,0.9692289990104104,8332609.0,8332629.0,20.0,38.51575672433305,0.3878306540829397,0.3923918080918801,-3.1148133425700313,-2.9372767889896765
166,8422.628475,3.5078372,2,67,2,1,2,2,1,2,46.00961538,n/a,n/a,8333515.0,8337025.0,0.0,0.0,0.0,8334848.0,8334031.0,8336024.0,8334032.0,8334425.0,8336031.0,8337025.0,3510.0,517.0,393.0,994.0,1993.0,-8336031.0,0.0,0.0,0.0,1.0,0.0,0.0,0.0,-0.5296144173164012,-9.948443368413997,0.4742299030872381,0.21461499263802103,8334820.0,8334904.0,84.0,525.0906432846838,9.422406206047468,10.482289789110071,3.11403623494456,395.0,3.103276980006141,1.0,-0.5296144173164012,-9.948443368413997,0.4742299030872381,0.21461499263802103,8334820.0,8334904.0,84.0,525.0906432846838,9.422406206047468,10.482289789110071,3.11403623494456,3.103276980006141
167,8426.144649,3.6911511,2,68,2,2,1,2,1,1,46.00961538,n/a,n/a,8337031.0,8340724.0,0.0,0.0,0.0,8338524.0,8337731.0,8339724.0,8337731.0,8338124.0,8339731.0,8340724.0,3693.0,700.0,393.0,993.0,1993.0,-8339731.0,0.0,0.0,0.0,1.0,0.0,0.0,0.0,-0.328845553235675,10.090366186126237,0.6092296565208302,0.8757676312486907,8338500.0,8338574.0,74.0,454.61784889126443,10.422620388444987,11.703288636853399,-0.025575817317409554,376.0,0.054153163076955745,1.0,9.35998290472911,8.89613759805984,2.5407645902630036,2.461149351058579,8339296.0,8339327.0,31.0,29.309682920206587,0.47062836169602856,0.49508381148854325,2.9716072545208587,2.784458643069002
168,8429.84413,3.5078265,2,69,2,2,1,2,4,1,46.00961538,n/a,n/a,8340730.0,8344240.0,0.0,0.0,0.0,8342473.0,8341247.0,8343240.0,8341247.0,8342240.0,8343247.0,8344240.0,3510.0,517.0,993.0,993.0,1993.0,-8343247.0,0.0,0.0,0.0,1.0,0.0,0.0,0.0,0.048461449950519736,11.059595185136647,0.2007688640807263,-0.1903842676627592,8342453.0,8342519.0,66.0,446.05624543867395,11.018079093318704,12.349171517327115,0.035508489118317686,213.0,0.06058289095082843,1.0,14.64920401361449,14.583434902967353,-1.0003827882643157,-1.007305852542963,8342855.0,8342876.0,21.0,17.612664973172155,0.06613247866458495,0.12600167179773508,3.0367157148595405,-2.219791885791411
169,8433.36027,3.699455,2,70,2,2,1,2,2,2,46.00961538,n/a,n/a,8344247.0,8347947.0,0.0,0.0,0.0,8346046.0,8344957.0,8346948.0,8344957.0,8345546.0,8346954.0,8347947.0,3700.0,710.0,589.0,993.0,1991.0,-8346954.0,0.0,0.0,0.0,1.0,0.0,0.0,0.0,-0.0692306427864579,9.681905393686137,0.05192298208984342,0.1384612855729158,8346029.0,8346094.0,65.0,413.1925841101924,9.751520029193612,10.874237244886308,-0.008874456406371991,483.0,0.05892405644686824,1.0,1.734227601800771,-0.951921338313796,-0.12461515701562499,-0.3011532961210934,8346800.0,8346914.0,114.0,1455.2088118934162,2.6919438781366583,12.306058337926181,3.0759653842416457,2.5566326370023256
170,8437.068076,3.5579893,2,71,2,2,1,1,2,1,46.00961538,n/a,n/a,8347954.0,8351514.0,0.0,0.0,0.0,8349421.0,8348521.0,8350514.0,8348521.0,8349114.0,8350521.0,8351514.0,3560.0,567.0,593.0,993.0,1993.0,-8350521.0,0.0,0.0,0.0,0.0,1.0,0.0,0.0,0.0,0.0,0.0,0.0,0.0,0.0,0.0,0.0,0.0,0.0,0.0,0.0,0.0,0.0,0.0,0.0,0.0,0.0,0.0,0.0,0.0,0.0,0.0,0.0,0.0,0.0
171,8440.63442,3.5078065,2,72,2,2,2,2,4,1,46.00961538,n/a,n/a,8351521.0,8355030.0,0.0,0.0,0.0,8353403.0,8352037.0,8354030.0,8352038.0,8353030.0,8354037.0,8355030.0,3509.0,517.0,992.0,993.0,1993.0,-8354037.0,0.0,0.0,0.0,1.0,0.0,0.0,0.0,-0.44999917811197626,9.304598390499939,0.7407678778150986,1.4088435807044177,8353383.0,8353457.0,74.0,338.57999877487185,9.777448484669225,10.816430549125243,-0.0683815051695706,353.0,-0.08298177192753155,1.0,12.55497706932414,15.538817773420476,0.9138444847812434,0.8099985206015565,8353804.0,8353842.0,38.0,149.71654504746482,2.985647221575002,2.990781797133863,0.03478874298958087,-0.08342958251482019
172,8444.15044,3.5078146,2,73,2,1,2,1,3,1,46.00961538,n/a,n/a,8355037.0,8358546.0,0.0,0.0,0.0,8356713.0,8355553.0,8357547.0,8355553.0,8356346.0,8357553.0,8358546.0,3509.0,516.0,793.0,993.0,1994.0,-8357553.0,0.0,0.0,0.0,1.0,0.0,0.0,0.0,-0.543460545873696,-10.77228801757285,0.8134600527408802,0.6265373172174447,8356686.0,8356759.0,73.0,498.0454585933985,10.230535252607405,11.024366878373927,3.123320575678703,340.0,3.0925907302304676,1.0,-12.409592719472576,-11.983824266335862,0.40153772816145655,0.4465376459726526,8357038.0,8357061.0,23.0,31.387951538692633,0.42813989336365865,0.4389599464756692,-0.10530012956404491,0.3292317115838716
173,8447.666711,3.7243622,2,74,2,2,2,1,4,1,46.00961538,n/a,n/a,8358553.0,8362278.0,0.0,0.0,0.0,8360545.0,8359286.0,8361279.0,8359286.0,8360279.0,8361286.0,8362279.0,3725.0,733.0,993.0,993.0,1993.0,-8361286.0,0.0,0.0,0.0,1.0,0.0,0.0,0.0,0.09692289990103947,8.176138913080678,0.26653797472786445,0.7753831992083275,8360527.0,8360591.0,64.0,363.04947038283893,8.095224200112982,9.175247857893828,-0.06289892518672112,248.0,0.0759038359322546,1.0,17.49804496427723,16.975353611239477,-0.8965368240846289,-0.917306016920567,8361278.0,8361313.0,35.0,40.58186140751255,0.523103823262165,0.5129612230416378,3.1018784467565528,2.7686049317897323
174,8451.39937,3.4995205,2,75,2,1,2,2,4,1,46.00961538,n/a,n/a,8362286.0,8365787.0,0.0,0.0,0.0,8364212.0,8362795.0,8364787.0,8362795.0,8363785.0,8364793.0,8365787.0,3501.0,509.0,990.0,994.0,1992.0,-8364793.0,0.0,0.0,0.0,1.0,0.0,0.0,0.0,-0.30461482826041314,-11.291517838471282,0.38423006746484206,0.7546140063723894,8364196.0,8364265.0,69.0,523.8480562714426,10.993144318982688,11.731537399157073,-3.1078940102634087,411.0,3.092297319346997,1.0,2.696533536532538,0.1626920105481776,1.6615354268749893,1.4399973699583248,8365338.0,8365395.0,57.0,169.6042817244861,2.5435078119528476,2.9618763137299995,3.0543827280588833,0.09245863671566355
175,8454.907206,3.5995045,2,76,2,1,1,2,3,2,46.00961538,n/a,n/a,8365793.0,8369394.0,0.0,0.0,0.0,8367620.0,8366403.0,8368394.0,8366403.0,8367193.0,8368401.0,8369394.0,3601.0,610.0,790.0,993.0,1991.0,-8368401.0,0.0,0.0,0.0,1.0,0.0,0.0,0.0,-0.2596149104492171,-10.831134063941336,0.2319226533346355,-0.15230741413020657,8367600.0,8367665.0,65.0,566.1298510466113,10.578499418981634,11.537759676338409,3.1052628693287616,407.0,3.076142075362891,1.0,-1.6926892161288947,-0.9553828704531196,0.1903842676627592,0.31499942467838415,8368654.0,8368676.0,22.0,65.7412707976147,0.7477630538692014,0.730703115998385,-0.16743177847052454,-0.17137912638950908
