onset	duration	run_number	trial_number	task	ext_mot_pos	ext_mot_ver_dir	staircase_num	fix_off_prct	trial_type	ext_mot_ori	direction_report	response_duration
6605.454526	3.6994965	1	1	2	2	2	2	1	1	-32.69230769	n/a	n/a
6609.162353	3.5078566	1	2	2	2	2	1	1	2	-32.69230769	n/a	n/a
6612.678529	3.507835	1	3	2	2	2	2	4	1	-32.69230769	n/a	n/a
6616.203061	3.5078302	1	4	2	1	1	2	3	1	-32.69230769	n/a	n/a
6619.719225	3.5996133	1	5	2	2	2	1	5	2	-32.69230769	n/a	n/a
6623.335495	3.5077352	1	6	2	2	1	2	5	2	-32.69230769	n/a	n/a
6626.851556	3.5078424	1	7	2	1	1	2	5	1	-32.69230769	n/a	n/a
6630.367733	3.5078725	1	8	2	1	1	2	3	1	-32.69230769	n/a	n/a
6633.883937	3.5078446	1	9	2	2	1	1	3	1	-32.69230769	n/a	n/a
6637.400111	3.5078476	1	10	2	2	2	1	5	1	-32.69230769	n/a	n/a
6640.916291	3.5078297	1	11	2	2	2	2	2	1	-32.69230769	n/a	n/a
6644.432455	3.5078592	1	12	2	2	2	1	4	1	-32.69230769	n/a	n/a
6647.948628	3.5078524	1	13	2	1	1	2	4	2	-32.69230769	n/a	n/a
6651.464808	3.5911697	1	14	2	2	2	1	5	1	-32.69230769	n/a	n/a
6655.06431	3.5078421	1	15	2	2	2	1	3	2	-32.69230769	n/a	n/a
6658.580482	3.5078449	1	16	2	2	2	1	4	1	-32.69230769	n/a	n/a
6662.096657	3.5078472	1	17	2	1	1	1	1	1	-32.69230769	n/a	n/a
6665.612832	3.5078045	1	18	2	1	1	1	5	1	-32.69230769	n/a	n/a
6669.129166	3.5076916	1	19	2	2	2	1	3	2	-32.69230769	n/a	n/a
6672.645188	3.5078199	1	20	2	1	2	1	5	1	-32.69230769	n/a	n/a
6676.16134	3.6495013	1	21	2	2	1	1	5	2	-32.69230769	n/a	n/a
6679.819154	3.5078443	1	22	2	2	2	1	5	2	-32.69230769	n/a	n/a
6683.335319	3.5078422	1	23	2	1	2	1	1	2	-32.69230769	n/a	n/a
6686.851492	3.507887	1	24	2	1	2	2	4	2	-32.69230769	n/a	n/a
6690.367697	3.5078589	1	25	2	1	1	2	3	1	-32.69230769	n/a	n/a
6693.883875	3.5079167	1	26	2	2	1	1	3	2	-32.69230769	n/a	n/a
6697.400123	3.5077973	1	27	2	1	1	1	4	2	-32.69230769	n/a	n/a
6700.916253	3.6495018	1	28	2	1	2	1	3	1	-32.69230769	n/a	n/a
6704.574092	3.5077978	1	29	2	2	1	2	5	1	-32.69230769	n/a	n/a
6708.090251	3.5078486	1	30	2	2	1	1	5	2	-32.69230769	n/a	n/a
6711.606416	3.5078594	1	31	2	1	1	1	4	2	-32.69230769	n/a	n/a
6715.122608	3.5078443	1	32	2	1	2	1	2	2	-32.69230769	n/a	n/a
6718.638783	3.5078433	1	33	2	2	1	2	5	2	-32.69230769	n/a	n/a
6722.154975	3.991252	1	34	2	1	2	1	1	2	-32.69230769	n/a	n/a
6726.154514	3.5077179	1	35	2	1	1	1	2	2	-32.69230769	n/a	n/a
6729.670578	3.5078473	1	36	2	2	2	2	5	1	-32.69230769	n/a	n/a
6733.186759	3.5078439	1	37	2	1	1	1	1	2	-32.69230769	n/a	n/a
6736.703053	3.5077149	1	38	2	2	2	1	1	2	-32.69230769	n/a	n/a
6740.21925	3.5077193	1	39	2	2	1	1	5	1	-32.69230769	n/a	n/a
6743.735247	3.5078747	1	40	2	1	1	1	4	2	-32.69230769	n/a	n/a
6747.251468	3.5078164	1	41	2	1	1	2	2	1	-32.69230769	n/a	n/a
6750.767687	3.5077737	1	42	2	2	2	2	1	1	-32.69230769	n/a	n/a
6754.283813	3.5078158	1	43	2	1	1	1	5	1	-32.69230769	n/a	n/a
6757.799963	3.5078746	1	44	2	1	2	2	1	1	-32.69230769	n/a	n/a
6761.316168	3.5078471	1	45	2	2	2	2	5	1	-32.69230769	n/a	n/a
6764.832345	3.5078612	1	46	2	2	2	2	5	1	-32.69230769	n/a	n/a
6768.348573	3.5077608	1	47	2	1	1	2	2	2	-32.69230769	n/a	n/a
6771.864673	3.507893	1	48	2	2	1	2	3	1	-32.69230769	n/a	n/a
6775.380887	3.5078583	1	49	2	1	2	1	1	1	-32.69230769	n/a	n/a
6778.897077	3.5078513	1	50	2	2	1	1	2	2	-32.69230769	n/a	n/a
6782.413258	3.507862	1	51	2	2	2	1	4	1	-32.69230769	n/a	n/a
6785.929461	3.5078369	1	52	2	1	2	1	1	1	-32.69230769	n/a	n/a
6789.445609	3.5078504	1	53	2	2	2	2	1	2	-32.69230769	n/a	n/a
6792.961795	3.5078128	1	54	2	1	2	2	4	1	-32.69230769	n/a	n/a
6796.477974	3.5078613	1	55	2	1	1	1	1	1	-32.69230769	n/a	n/a
6799.994165	3.5078355	1	56	2	1	1	2	1	2	-32.69230769	n/a	n/a
6803.510335	3.5078467	1	57	2	1	1	2	1	2	-32.69230769	n/a	n/a
6807.026511	3.5078619	1	58	2	2	1	2	3	2	-32.69230769	n/a	n/a
6810.542706	3.5078328	1	59	2	2	1	2	2	2	-32.69230769	n/a	n/a
6814.058874	3.507843	1	60	2	1	1	1	5	2	-32.69230769	n/a	n/a
6817.575046	3.5078153	1	61	2	2	1	1	5	2	-32.69230769	n/a	n/a
6821.091225	3.5494914	1	62	2	2	2	1	1	1	-32.69230769	n/a	n/a
6824.649052	3.5078434	1	63	2	2	2	2	1	2	-32.69230769	n/a	n/a
6828.165195	3.5078953	1	64	2	1	2	1	1	2	-32.69230769	n/a	n/a
6831.681423	3.5078576	1	65	2	1	2	1	2	1	-32.69230769	n/a	n/a
6835.197615	3.507833	1	66	2	2	1	1	2	2	-32.69230769	n/a	n/a
6838.722127	3.508028	1	67	2	2	1	1	4	2	-32.69230769	n/a	n/a
6842.238289	3.6161817	1	68	2	1	2	2	1	1	-32.69230769	n/a	n/a
6845.862801	3.5078173	1	69	2	1	1	2	2	1	-32.69230769	n/a	n/a
6849.378984	3.507827	1	70	2	1	2	1	4	1	-32.69230769	n/a	n/a
6852.903476	3.5080282	1	71	2	2	1	1	3	1	-32.69230769	n/a	n/a
6856.419669	3.4994931	1	72	2	2	2	1	2	1	-32.69230769	n/a	n/a
6859.927503	3.5078619	1	73	2	2	2	1	3	1	-32.69230769	n/a	n/a
6863.443693	3.5078393	1	74	2	2	2	1	4	1	-32.69230769	n/a	n/a
6866.959852	3.5078556	1	75	2	2	2	1	5	2	-32.69230769	n/a	n/a
6870.476042	3.5078307	1	76	2	2	1	1	5	2	-32.69230769	n/a	n/a
6873.992192	3.5078558	1	77	2	1	1	2	4	1	-32.69230769	n/a	n/a
6877.508381	3.5078539	1	78	2	1	2	1	3	1	-32.69230769	n/a	n/a
6881.02456	3.507852	1	79	2	1	1	1	3	1	-32.69230769	n/a	n/a
6884.540741	3.507863	1	80	2	1	1	2	2	1	-32.69230769	n/a	n/a
6888.056935	3.5078483	1	81	2	1	2	2	2	1	-32.69230769	n/a	n/a
6891.573118	3.5078581	1	82	2	2	1	1	1	1	-32.69230769	n/a	n/a
6895.089313	3.5078173	1	83	2	1	2	1	1	2	-32.69230769	n/a	n/a
6898.613833	3.5077919	1	84	2	1	1	1	5	2	-32.69230769	n/a	n/a
6902.130117	3.5077172	1	85	2	2	1	2	3	1	-32.69230769	n/a	n/a
6905.646168	3.5080747	1	86	2	2	1	2	4	2	-32.69230769	n/a	n/a
6909.162353	3.5078577	1	87	2	1	1	1	2	2	-32.69230769	n/a	n/a
6912.6785	3.507858	1	88	2	1	2	1	3	1	-32.69230769	n/a	n/a
6916.19469	3.507865	1	89	2	2	2	2	3	2	-32.69230769	n/a	n/a
6919.710865	3.5078354	1	90	2	2	2	1	2	2	-32.69230769	n/a	n/a
6923.227034	3.5078509	1	91	2	2	2	2	4	2	-32.69230769	n/a	n/a
6926.743219	3.5078196	1	92	2	2	1	1	5	1	-32.69230769	n/a	n/a
6930.259373	3.5079025	1	93	2	2	1	2	4	1	-32.69230769	n/a	n/a
6933.775557	3.5078859	1	94	2	1	2	2	1	1	-32.69230769	n/a	n/a
6937.291751	3.6494812	1	95	2	1	1	1	5	1	-32.69230769	n/a	n/a
6940.949574	3.641223	1	96	2	1	2	1	1	1	-32.69230769	n/a	n/a
6944.599129	3.5077895	1	97	2	1	2	2	1	2	-32.69230769	n/a	n/a
6948.123618	3.5078156	1	98	2	2	1	2	5	2	-32.69230769	n/a	n/a
6951.639749	3.6244956	1	99	2	2	1	2	4	1	-32.69230769	n/a	n/a
6955.27258	3.5079488	1	100	2	2	2	2	2	2	-32.69230769	n/a	n/a
