onset	duration	run_number	trial_number	task	ext_mot_pos	ext_mot_ver_dir	fix_off_prct	exp_mot_ori	direction_report	response_duration
4212.174038	3.524290405	1	1	2	2	1	2	41.63461538	n/a	n/a
4215.706662	3.5077849	1	2	2	1	2	2	41.63461538	n/a	n/a
4219.222919	3.5077185	1	3	2	2	1	3	41.63461538	n/a	n/a
4222.739109	3.5077229	1	4	2	1	2	4	41.63461538	n/a	n/a
4226.255158	3.5161457	1	5	2	1	1	2	41.63461538	n/a	n/a
4229.787967	3.50783	1	6	2	2	2	2	41.63461538	n/a	n/a
4233.304126	3.5078468	1	7	2	2	2	3	41.63461538	n/a	n/a
4236.820301	3.5078277	1	8	2	2	2	1	41.63461538	n/a	n/a
4240.336452	3.507829	1	9	2	2	2	1	41.63461538	n/a	n/a
4243.852605	3.5078227	1	10	2	2	1	2	41.63461538	n/a	n/a
4247.36877	3.5078424	1	11	2	2	1	3	41.63461538	n/a	n/a
4250.884933	3.5078291	1	12	2	1	2	5	41.63461538	n/a	n/a
4254.401091	3.5078417	1	13	2	2	1	1	41.63461538	n/a	n/a
4257.917268	3.5078133	1	14	2	2	2	3	41.63461538	n/a	n/a
4261.433536	3.5076921	1	15	2	2	1	4	41.63461538	n/a	n/a
4264.949555	3.5078284	1	16	2	2	1	2	41.63461538	n/a	n/a
4268.465715	3.5078443	1	17	2	1	1	4	41.63461538	n/a	n/a
4271.98189	3.507834	1	18	2	2	1	3	41.63461538	n/a	n/a
4275.498226	3.5076537	1	19	2	2	1	4	41.63461538	n/a	n/a
4279.014214	3.5078271	1	20	2	1	1	1	41.63461538	n/a	n/a
4282.538685	3.5078512	1	21	2	1	2	3	41.63461538	n/a	n/a
4286.054955	3.5077552	1	22	2	2	1	5	41.63461538	n/a	n/a
4289.571041	3.5078326	1	23	2	2	1	5	41.63461538	n/a	n/a
4293.087194	3.5079274	1	24	2	2	1	2	41.63461538	n/a	n/a
4296.603475	3.5077048	1	25	2	1	1	1	41.63461538	n/a	n/a
4300.119505	3.5078335	1	26	2	2	1	2	41.63461538	n/a	n/a
4303.635672	3.5078448	1	27	2	1	1	3	41.63461538	n/a	n/a
4307.152031	3.5076292	1	28	2	2	1	5	41.63461538	n/a	n/a
4310.667975	3.5078283	1	29	2	1	2	2	41.63461538	n/a	n/a
4314.184137	3.5079762	1	30	2	2	1	2	41.63461538	n/a	n/a
4317.70031	3.5078195	1	31	2	1	1	3	41.63461538	n/a	n/a
4321.216461	3.507842	1	32	2	2	1	4	41.63461538	n/a	n/a
4324.732599	3.5078272	1	33	2	2	2	5	41.63461538	n/a	n/a
4328.248854	3.5077211	1	34	2	2	1	4	41.63461538	n/a	n/a
4331.764921	3.5078284	1	35	2	1	1	1	41.63461538	n/a	n/a
4335.281072	3.5078701	1	36	2	1	2	5	41.63461538	n/a	n/a
4338.797274	3.5078048	1	37	2	2	2	3	41.63461538	n/a	n/a
4342.313456	3.5077621	1	38	2	2	1	3	41.63461538	n/a	n/a
4345.829566	3.5078155	1	39	2	1	1	2	41.63461538	n/a	n/a
4349.345714	3.5078262	1	40	2	2	2	2	41.63461538	n/a	n/a
4352.861886	3.5078584	1	41	2	2	2	4	41.63461538	n/a	n/a
4356.378064	3.5078023	1	42	2	1	2	5	41.63461538	n/a	n/a
4359.894201	3.5078109	1	43	2	1	1	2	41.63461538	n/a	n/a
4363.410351	3.5078318	1	44	2	2	2	1	41.63461538	n/a	n/a
4366.926514	3.5078939	1	45	2	1	1	5	41.63461538	n/a	n/a
4370.442674	3.5078566	1	46	2	2	2	1	41.63461538	n/a	n/a
4373.9589	3.5077858	1	47	2	2	1	4	41.63461538	n/a	n/a
4377.475014	3.5078457	1	48	2	2	1	2	41.63461538	n/a	n/a
4380.991178	3.6161609	1	49	2	2	1	3	41.63461538	n/a	n/a
4384.615656	3.5078762	1	50	2	1	1	2	41.63461538	n/a	n/a
4388.13186	3.5078218	1	51	2	2	1	1	41.63461538	n/a	n/a
4391.648019	3.5078224	1	52	2	2	2	3	41.63461538	n/a	n/a
4395.164171	3.9994396	1	53	2	2	1	4	41.63461538	n/a	n/a
4399.171934	3.991095	1	54	2	1	1	3	41.63461538	n/a	n/a
4403.171369	3.6578078	1	55	2	1	2	1	41.63461538	n/a	n/a
4406.837484	3.5078595	1	56	2	2	1	2	41.63461538	n/a	n/a
4410.353671	3.6911037	1	57	2	2	1	2	41.63461538	n/a	n/a
4414.053113	3.674457	1	58	2	2	2	1	41.63461538	n/a	n/a
4417.736049	3.507708	1	59	2	2	1	2	41.63461538	n/a	n/a
4421.252088	3.5078314	1	60	2	1	1	4	41.63461538	n/a	n/a
4424.768376	3.5077166	1	61	2	2	1	2	41.63461538	n/a	n/a
4428.284413	3.5078953	1	62	2	2	1	5	41.63461538	n/a	n/a
4431.800616	3.5077844	1	63	2	2	1	5	41.63461538	n/a	n/a
4435.316703	3.5078801	1	64	2	1	1	3	41.63461538	n/a	n/a
4438.832895	3.5078191	1	65	2	2	1	2	41.63461538	n/a	n/a
4442.349057	3.5078225	1	66	2	2	2	1	41.63461538	n/a	n/a
4445.865215	3.5078345	1	67	2	1	2	3	41.63461538	n/a	n/a
4449.381382	3.5078659	1	68	2	1	1	1	41.63461538	n/a	n/a
4452.897574	3.5077691	1	69	2	2	1	3	41.63461538	n/a	n/a
4456.413662	3.5078223	1	70	2	2	2	4	41.63461538	n/a	n/a
4459.929868	3.5078115	1	71	2	2	2	1	41.63461538	n/a	n/a
4463.454311	3.5078212	1	72	2	2	1	3	41.63461538	n/a	n/a
4466.970468	3.5078294	1	73	2	2	2	5	41.63461538	n/a	n/a
4470.486629	3.5078584	1	74	2	1	2	4	41.63461538	n/a	n/a
4474.002854	3.5077971	1	75	2	1	2	1	41.63461538	n/a	n/a
4477.518982	3.5078568	1	76	2	1	1	1	41.63461538	n/a	n/a
4481.035118	3.5078405	1	77	2	1	2	1	41.63461538	n/a	n/a
4484.551294	3.5078288	1	78	2	1	2	2	41.63461538	n/a	n/a
4488.067456	3.5078433	1	79	2	1	1	3	41.63461538	n/a	n/a
4491.583618	3.5078135	1	80	2	2	1	3	41.63461538	n/a	n/a
4495.099779	3.5078314	1	81	2	2	2	1	41.63461538	n/a	n/a
4498.61593	3.5078897	1	82	2	2	1	1	41.63461538	n/a	n/a
4502.132265	3.5078263	1	83	2	2	1	2	41.63461538	n/a	n/a
4505.648312	3.5077828	1	84	2	2	1	3	41.63461538	n/a	n/a
4509.164473	3.5078168	1	85	2	2	2	5	41.63461538	n/a	n/a
4512.680622	3.5078173	1	86	2	1	1	4	41.63461538	n/a	n/a
4516.196886	3.5077115	1	87	2	1	2	1	41.63461538	n/a	n/a
4519.712932	3.5078439	1	88	2	1	2	1	41.63461538	n/a	n/a
4523.229106	3.5078459	1	89	2	2	1	4	41.63461538	n/a	n/a
4526.745275	3.5078667	1	90	2	2	1	5	41.63461538	n/a	n/a
4530.26143	3.5078113	1	91	2	1	2	5	41.63461538	n/a	n/a
4533.777596	3.5080012	1	92	2	1	1	1	41.63461538	n/a	n/a
4537.293769	3.5077837	1	93	2	2	2	2	41.63461538	n/a	n/a
4540.80991	3.5078411	1	94	2	1	1	4	41.63461538	n/a	n/a
4544.326078	3.5911499	1	95	2	2	1	2	41.63461538	n/a	n/a
4547.925691	3.5076985	1	96	2	2	1	5	41.63461538	n/a	n/a
4551.441856	3.507707	1	97	2	1	2	5	41.63461538	n/a	n/a
4554.957887	3.507828	1	98	2	2	2	4	41.63461538	n/a	n/a
4558.474049	3.5078465	1	99	2	2	1	5	41.63461538	n/a	n/a
4561.990227	3.5077999	1	100	2	2	2	2	41.63461538	n/a	n/a
