,onset,duration,run_number,trial_number,task,ext_mot_pos,ext_mot_ver_dir,staircase_num,fix_off_prct,trial_type,ext_mot_ori,direction_report,response_duration,trial_onset,trial_offset,button_press_onset,button_left,button_right,fix_break,motion_onset,motion_offset,fixation_onset,fixation_offset,response_onset,response_offset,trial_duration,fix_check_duration,fixation_duration,response_duration,motion_duration,reaction_time,miss_time_trial,blink_trial,no_saccade_trial,main_sac_trial,innacurate_sac_trial,early_sac_trial,late_sac_trial,sac_x_onset_trial,sac_x_offset_trial,sac_y_onset_trial,sac_y_offset_trial,sac_t_onset_trial,sac_t_offset_trial,sac_dur_trial,sac_vpeak_trial,sac_dist_trial,sac_amp_trial,sac_dist_ang_trial,sac_lat_trial,sac_amp_ang_trial,cor_sac_trial,cor_sac_x_onset_trial,cor_sac_x_offset_trial,cor_sac_y_onset_trial,cor_sac_y_offset_trial,cor_sac_t_onset_trial,cor_sac_t_offset_trial,cor_sac_dur_trial,cor_sac_vpeak_trial,cor_sac_dist_trial,cor_sac_amp_trial,cor_sac_dist_ang_trial,cor_sac_amp_ang_trial,gabor_sac_onset_x,gabor_sac_onset_y,sac_onset_gabor_path_prct
0,6605.454526,3.6994965,1,1,2,2,2,2,1,1,-32.69230769,n/a,n/a,6575714.0,6579413.0,0.0,0.0,0.0,6578339.0,6576412.0,6578414.0,6576413.0,6576812.0,6578420.0,6579414.0,3699.0,699.0,399.0,994.0,2002.0,-6578420.0,0.0,0.0,0.0,0.0,0.0,0.0,1.0,0.26653797472786445,8.279984877260365,0.3530762782109368,2.3157650012070157,6578313.0,6578388.0,75.0,364.8725080373941,8.250301708609431,8.749406460685284,-0.24019595816747225,1501.0,-0.26253923786893424,0.0,0.0,0.0,0.0,0.0,0.0,0.0,0.0,0.0,0.0,0.0,0.0,0.0,0.0,0.0,0.0
1,6609.162353,3.5078566,1,2,2,2,2,1,1,2,-32.69230769,n/a,n/a,6579420.0,6582930.0,0.0,0.0,0.0,6581237.0,6579937.0,6581929.0,6579937.0,6580330.0,6581936.0,6582930.0,3510.0,517.0,393.0,994.0,1992.0,-6581936.0,0.0,0.0,0.0,0.0,0.0,0.0,1.0,0.2526918461705697,9.879212725627545,0.08307677134374868,0.9242290811992143,6581220.0,6581285.0,65.0,400.30656577321093,9.663200373116366,9.897694743431302,-0.08715727455428342,890.0,-0.10019064576223724,0.0,0.0,0.0,0.0,0.0,0.0,0.0,0.0,0.0,0.0,0.0,0.0,0.0,0.0,0.0,0.0
2,6612.678529,3.507835,1,3,2,2,2,2,4,1,-32.69230769,n/a,n/a,6582936.0,6586446.0,0.0,0.0,0.0,6584863.0,6583453.0,6585446.0,6583454.0,6584446.0,6585453.0,6586446.0,3510.0,518.0,992.0,993.0,1993.0,-6585453.0,0.0,0.0,0.0,1.0,0.0,0.0,0.0,-0.14538434985156315,8.36306164860411,0.15923047840885393,1.1249979452799406,6584828.0,6584892.0,64.0,361.1706965243922,8.563081227496498,9.028038158046584,-0.11302318256427851,382.0,-0.13886051692480397,0.0,0.0,0.0,0.0,0.0,0.0,0.0,0.0,0.0,0.0,0.0,0.0,0.0,9.588689642479796,0.6408709686149009,0.6875
3,6616.203061,3.5078302,1,4,2,1,1,2,3,1,-32.69230769,n/a,n/a,6586462.0,6589970.0,0.0,0.0,0.0,6588028.0,6586979.0,6588971.0,6586979.0,6587769.0,6588978.0,6589971.0,3508.0,517.0,790.0,993.0,1992.0,-6588978.0,0.0,0.0,0.0,1.0,0.0,0.0,0.0,0.2007688640807263,-9.671520797268165,0.09692289990103947,-0.7615370706510368,6587999.0,6588084.0,85.0,346.20897856941207,9.90954371697388,10.383350191620462,3.054854314913808,230.0,3.0534680742491807,0.0,0.0,0.0,0.0,0.0,0.0,0.0,0.0,0.0,0.0,0.0,0.0,0.0,-9.977400529806582,-0.035212690583237435,0.5083333333333333
4,6619.719225,3.5996133,1,5,2,2,2,1,5,2,-32.69230769,n/a,n/a,6589977.0,6593579.0,0.0,0.0,0.0,6592102.0,6590586.0,6592578.0,6590587.0,6591779.0,6592587.0,6593582.0,3602.0,610.0,1192.0,995.0,1992.0,-6592587.0,0.0,0.0,0.0,1.0,0.0,0.0,0.0,-0.6196142529387973,9.764982165029881,-0.0692306427864579,1.2323054415989512,6592081.0,6592162.0,81.0,409.35290654221154,10.465841530571979,10.835554387000682,-0.12468318619891014,302.0,-0.1271683167595201,1.0,6.47998816481246,6.659987836057252,1.585381719809886,1.6753815554322802,6592561.0,6592585.0,24.0,68.4692457169615,0.20124575041548376,0.3593663907662653,-0.4636476090007974,-0.3644075891452,9.462132609396663,0.8380620358810241,0.7458333333333333
5,6623.335495,3.5077352,1,6,2,2,1,2,5,2,-32.69230769,n/a,n/a,6593596.0,6597103.0,0.0,0.0,0.0,6594202.0,6594111.0,6596102.0,6594112.0,6595303.0,6596110.0,6597103.0,3507.0,516.0,1191.0,993.0,1991.0,-6596110.0,0.0,0.0,0.0,0.0,1.0,0.0,0.0,0.0,0.0,0.0,0.0,0.0,0.0,0.0,0.0,0.0,0.0,0.0,0.0,0.0,0.0,0.0,0.0,0.0,0.0,0.0,0.0,0.0,0.0,0.0,0.0,0.0,0.0,0.0,0.0,0.0
6,6626.851556,3.5078424,1,7,2,1,1,2,5,1,-32.69230769,n/a,n/a,6597109.0,6600618.0,0.0,0.0,0.0,6599109.0,6597626.0,6599619.0,6597626.0,6598819.0,6599625.0,6600618.0,3509.0,517.0,1193.0,993.0,1993.0,-6599625.0,0.0,0.0,0.0,1.0,0.0,0.0,0.0,0.0034615321393236813,-9.273444601246034,-0.4223069209973947,-1.9315349337421734,6599090.0,6599158.0,68.0,361.57181142215705,9.398869964101875,9.757985424726964,2.9803189870533786,271.0,2.9647216623253683,0.0,0.0,0.0,0.0,0.0,0.0,0.0,0.0,0.0,0.0,0.0,0.0,0.0,-9.489251973628763,-0.79580680718114,0.7333333333333333
7,6630.367733,3.5078725,1,8,2,1,1,2,3,1,-32.69230769,n/a,n/a,6600625.0,6604134.0,0.0,0.0,0.0,6602368.0,6601142.0,6603135.0,6601142.0,6601936.0,6603142.0,6604135.0,3509.0,517.0,794.0,993.0,1993.0,-6603142.0,0.0,0.0,0.0,1.0,0.0,0.0,0.0,-0.02769225711458158,-9.010368158657492,-0.24576878189192627,-1.166536330951817,6602341.0,6602405.0,64.0,318.16818063024203,9.029744139872486,9.555005678378365,3.039444604287291,405.0,3.0396169506515065,0.0,0.0,0.0,0.0,0.0,0.0,0.0,0.0,0.0,0.0,0.0,0.0,0.0,-9.778525192104505,-0.3450843677157158,0.6
8,6633.883937,3.5078446,1,9,2,2,1,1,3,1,-32.69230769,n/a,n/a,6604142.0,6607651.0,0.0,0.0,0.0,6605651.0,6604658.0,6606651.0,6604658.0,6605451.0,6606658.0,6607651.0,3509.0,516.0,793.0,993.0,1993.0,-6606658.0,0.0,0.0,0.0,1.0,0.0,0.0,0.0,-0.07269217492578157,7.923447066910108,-0.1765381391054684,-0.418845388858071,6605632.0,6605701.0,69.0,359.7598031744449,7.999809721369035,7.987423718720958,0.030293759918775087,181.0,-0.046387523371707845,0.0,0.0,0.0,0.0,0.0,0.0,0.0,0.0,0.0,0.0,0.0,0.0,0.0,9.977400529806582,0.035212690583237435,0.4875
9,6637.400111,3.5078476,1,10,2,2,2,1,5,1,-32.69230769,n/a,n/a,6607658.0,6611167.0,0.0,0.0,0.0,6609524.0,6608174.0,6610167.0,6608174.0,6609367.0,6610174.0,6611167.0,3509.0,516.0,1193.0,993.0,1993.0,-6610174.0,0.0,0.0,0.0,1.0,0.0,0.0,0.0,-0.1903842676627592,8.826906955273381,-0.1730766069661447,1.2599976987135328,6609507.0,6609564.0,57.0,438.9481935266109,9.130456886971235,9.757887803137953,-0.15760706023729862,140.0,-0.16427388904501553,0.0,0.0,0.0,0.0,0.0,0.0,0.0,0.0,0.0,0.0,0.0,0.0,0.0,9.633888582866636,0.5704455874484299,0.6666666666666666
10,6640.916291,3.5078297,1,11,2,2,2,2,2,1,-32.69230769,n/a,n/a,6611174.0,6614683.0,0.0,0.0,0.0,6612533.0,6611690.0,6613684.0,6611690.0,6612284.0,6613690.0,6614683.0,3509.0,516.0,594.0,993.0,1994.0,-6613690.0,0.0,0.0,0.0,1.0,0.0,0.0,0.0,-0.13153822129426843,9.636905475874942,-0.044999917811196055,0.4049992603007802,6612511.0,6612561.0,50.0,380.5486295684674,9.778803174472136,9.825996613431291,-0.04603407434353093,227.0,0.05710088008096108,0.0,0.0,0.0,0.0,0.0,0.0,0.0,0.0,0.0,0.0,0.0,0.0,0.0,10.185315655586022,-0.2887440627825383,0.4125
11,6644.432455,3.5078592,1,12,2,2,2,1,4,1,-32.69230769,n/a,n/a,6614690.0,6618200.0,0.0,0.0,0.0,6615216.0,6615207.0,6617199.0,6615207.0,6616200.0,6617206.0,6618200.0,3510.0,517.0,993.0,994.0,1992.0,-6617206.0,0.0,0.0,0.0,0.0,1.0,0.0,0.0,0.0,0.0,0.0,0.0,0.0,0.0,0.0,0.0,0.0,0.0,0.0,0.0,0.0,0.0,0.0,0.0,0.0,0.0,0.0,0.0,0.0,0.0,0.0,0.0,0.0,0.0,0.0,0.0,0.0
12,6647.948628,3.5078524,1,13,2,1,1,2,4,2,-32.69230769,n/a,n/a,6618206.0,6621716.0,0.0,0.0,0.0,6621099.0,6618723.0,6620715.0,6618723.0,6619716.0,6620722.0,6621716.0,3510.0,517.0,993.0,994.0,1992.0,-6620722.0,0.0,0.0,0.0,0.0,1.0,0.0,0.0,0.0,0.0,0.0,0.0,0.0,0.0,0.0,0.0,0.0,0.0,0.0,0.0,0.0,0.0,0.0,0.0,0.0,0.0,0.0,0.0,0.0,0.0,0.0,0.0,0.0,0.0,0.0,0.0,0.0
13,6651.464808,3.5911697,1,14,2,2,2,1,5,1,-32.69230769,n/a,n/a,6621722.0,6625315.0,0.0,0.0,0.0,6623789.0,6622322.0,6624315.0,6622322.0,6623515.0,6624322.0,6625315.0,3593.0,600.0,1193.0,993.0,1993.0,-6624322.0,0.0,0.0,0.0,1.0,0.0,0.0,0.0,-0.1903842676627592,8.743830183929628,-0.03807685353255263,1.346536002196605,6623774.0,6623827.0,53.0,400.2545961304284,9.040870567998015,9.421266083634526,-0.1537554904335482,259.0,-0.1575378307132601,0.0,0.0,0.0,0.0,0.0,0.0,0.0,0.0,0.0,0.0,0.0,0.0,0.0,9.507331549783496,0.7676366547145532,0.725
14,6655.06431,3.5078421,1,15,2,2,2,1,3,2,-32.69230769,n/a,n/a,6625322.0,6628831.0,0.0,0.0,0.0,6627288.0,6625838.0,6627831.0,6625838.0,6626632.0,6627838.0,6628832.0,3509.0,516.0,794.0,994.0,1993.0,-6627838.0,0.0,0.0,0.0,1.0,0.0,0.0,0.0,-0.15923047840885393,9.398059758261658,-0.21807652477734077,1.561150994834626,6627265.0,6627334.0,69.0,467.53399116277865,9.72149408447601,10.123596208180555,-0.18405743056688467,633.0,-0.1787525154676264,0.0,0.0,0.0,0.0,0.0,0.0,0.0,0.0,0.0,0.0,0.0,0.0,0.0,9.534450914015597,0.7253814260146692,0.7125
15,6658.580482,3.5078449,1,16,2,2,2,1,4,1,-32.69230769,n/a,n/a,6628838.0,6632347.0,0.0,0.0,0.0,6630488.0,6629354.0,6631347.0,6629354.0,6630348.0,6631354.0,6632347.0,3509.0,516.0,994.0,993.0,1993.0,-6631354.0,0.0,0.0,0.0,1.0,0.0,0.0,0.0,-0.19730733194140657,9.602290154481713,-0.16961507482682103,0.5365374815950487,6630467.0,6630537.0,70.0,424.16051049892764,9.825006988743135,10.055255156346123,-0.07193500624616335,119.0,-0.09411943394116859,1.0,3.3438400465859126,3.2573017431028406,0.9692289990104104,0.9761520632890558,6631382.0,6631402.0,20.0,16.820022822377844,0.0868147843903018,0.09839523077499047,-3.0617626678775602,-2.4558631426834787,9.868923072878175,0.20423360538277002,0.5583333333333333
16,6662.096657,3.5078472,1,17,2,1,1,1,1,1,-32.69230769,n/a,n/a,6632354.0,6635863.0,0.0,0.0,0.0,6633530.0,6632871.0,6634864.0,6632871.0,6633264.0,6634870.0,6635863.0,3509.0,517.0,393.0,993.0,1993.0,-6634870.0,0.0,0.0,0.0,1.0,0.0,0.0,0.0,-0.33576861751432235,-10.121519975380142,-0.14192281771223947,0.020769192835938154,6633514.0,6633589.0,75.0,330.86616351855645,9.787103674135109,10.008563910228764,-3.1249687871621603,250.0,3.1011163302796643,0.0,0.0,0.0,0.0,0.0,0.0,0.0,0.0,0.0,0.0,0.0,0.0,0.0,-10.384190993288097,0.5986157399150167,0.32083333333333336
17,6665.612832,3.5078045,1,18,2,1,1,1,5,1,-32.69230769,n/a,n/a,6635870.0,6639379.0,0.0,0.0,0.0,6637813.0,6636387.0,6638380.0,6636387.0,6637580.0,6638386.0,6639379.0,3509.0,517.0,1193.0,993.0,1993.0,-6638386.0,0.0,0.0,0.0,1.0,0.0,0.0,0.0,-0.38423006746484206,-9.394598226122335,-0.38423006746484206,-1.540381801998688,6637787.0,6637858.0,71.0,335.50582681440034,9.084240264756016,9.282610740994567,3.013976492799053,207.0,3.0031762304313783,0.0,0.0,0.0,0.0,0.0,0.0,0.0,0.0,0.0,0.0,0.0,0.0,0.0,-9.5615702782477,-0.683126197314785,0.7
18,6669.129166,3.5076916,1,19,2,2,2,1,3,2,-32.69230769,n/a,n/a,6639387.0,6642896.0,0.0,0.0,0.0,6640863.0,6639903.0,6641896.0,6639903.0,6640696.0,6641903.0,6642896.0,3509.0,516.0,793.0,993.0,1993.0,-6641903.0,0.0,0.0,0.0,1.0,0.0,0.0,0.0,-0.1730766069661447,9.51921338313796,-0.1626920105481776,0.23538418547395523,6640846.0,6640894.0,48.0,377.846929925232,9.700461324602644,9.711201793433649,-0.04104835796968674,150.0,-0.06241880999595735,1.0,0.48115296736588153,0.43269151741536177,0.7684601349296841,0.7649986027903605,6641646.0,6641671.0,25.0,17.772569617589667,0.048584918812922796,0.1286367939662348,3.0702851888044855,-2.7261005576489,10.05875862250288,-0.09155299551641496,0.4708333333333333
19,6672.645188,3.5078199,1,20,2,1,2,1,5,1,-32.69230769,n/a,n/a,6642902.0,6646412.0,0.0,0.0,0.0,6644819.0,6643419.0,6645412.0,6643419.0,6644612.0,6645419.0,6646412.0,3510.0,517.0,1193.0,993.0,1993.0,-6645419.0,0.0,0.0,0.0,1.0,0.0,0.0,0.0,-0.16961507482682103,-10.654595924835867,-0.05884604636849078,0.7199986849791604,6644794.0,6644871.0,77.0,377.12920932743197,10.51386810553587,10.775084020973312,-3.067446886276388,182.0,-3.0663483814934205,0.0,0.0,0.0,0.0,0.0,0.0,0.0,0.0,0.0,0.0,0.0,0.0,0.0,-10.411310357520197,0.6408709686149009,0.6875
20,6676.16134,3.6495013,1,21,2,2,1,1,5,2,-32.69230769,n/a,n/a,6646419.0,6650069.0,0.0,0.0,0.0,6648495.0,6647079.0,6649070.0,6647079.0,6648268.0,6649077.0,6650069.0,3650.0,660.0,1189.0,992.0,1991.0,-6649077.0,0.0,0.0,0.0,1.0,0.0,0.0,0.0,-0.10038443204036315,9.529597979555927,-0.2596149104492171,-1.360382130753896,6648472.0,6648521.0,49.0,405.0272014292367,9.692690530546777,9.716905459164014,0.1138122824828102,204.0,0.11675494645467492,1.0,9.605751686621032,9.598828622342385,-1.3880743878684814,-1.450381966376292,6648572.0,6648594.0,22.0,20.897004459740547,0.06269101337921773,0.11354669661722634,1.68145354796882,0.9151007005533647,10.429389933674935,-0.6690411210814916,0.6958333333333333
21,6679.819154,3.5078443,1,22,2,2,2,1,5,2,-32.69230769,n/a,n/a,6650076.0,6653585.0,0.0,0.0,0.0,6651993.0,6650593.0,6652586.0,6650593.0,6651786.0,6652593.0,6653585.0,3509.0,517.0,1193.0,992.0,1993.0,-6652593.0,0.0,0.0,0.0,1.0,0.0,0.0,0.0,-0.19384579980208289,10.505750042844985,-0.017307660696614473,1.6926892161288947,6651972.0,6652051.0,79.0,374.08800233185394,10.835379112644993,11.364252715738902,-0.15847860826589094,186.0,-0.15628517073765552,1.0,0.6438449779140591,0.5088452244804671,0.8999983562239525,0.9311521454778579,6653013.0,6653032.0,19.0,27.722288852195295,0.13854779685006688,0.2179666071671473,-2.9147938055359117,-0.8190932707434592,9.588689642479796,0.6408709686149009,0.6875
22,6683.335319,3.5078422,1,23,2,1,2,1,1,2,-32.69230769,n/a,n/a,6653592.0,6657102.0,0.0,0.0,0.0,6654769.0,6654109.0,6656102.0,6654109.0,6654502.0,6656109.0,6657102.0,3510.0,517.0,393.0,993.0,1993.0,-6656109.0,0.0,0.0,0.0,1.0,0.0,0.0,0.0,-0.12461515701562499,-9.681905393686137,-0.17999967124479208,-0.5607682065703105,6654746.0,6654794.0,48.0,379.9341436106108,9.564872259756083,9.501857172595138,3.1017730754548185,244.0,3.0949452630877183,1.0,-9.6611362008502,-9.574597897367127,-0.5573066744309868,-0.4292299852760381,6654796.0,6654825.0,29.0,61.38732274963005,0.15457204234473218,0.40612196247592675,-0.9765826229944684,-0.3298366315262202,-9.606769218634533,-0.6127008161483141,0.31666666666666665
23,6686.851492,3.507887,1,24,2,1,2,2,4,2,-32.69230769,n/a,n/a,6657109.0,6660618.0,0.0,0.0,0.0,6658818.0,6657625.0,6659618.0,6657625.0,6658618.0,6659625.0,6660618.0,3509.0,516.0,993.0,993.0,1993.0,-6659625.0,0.0,0.0,0.0,1.0,0.0,0.0,0.0,-0.21115346049869735,-10.062673929011655,-0.10730749631901051,0.578075867266925,6658804.0,6658890.0,86.0,369.49142017542465,9.87533320433342,10.095162504116134,-3.072133246238085,186.0,-3.065741209134367,1.0,-1.2323054415989512,-1.2426900380169184,-0.13153822129426843,-0.04153838567187631,6660238.0,6660257.0,19.0,29.417366542225047,0.09059696603541231,0.16890716241023315,-1.6856729322117825,-2.3706862292578483,-10.194355443663389,0.3028291390158317,0.5875
24,6690.367697,3.5078589,1,25,2,1,1,2,3,1,-32.69230769,n/a,n/a,6660625.0,6664134.0,0.0,0.0,0.0,6662167.0,6661141.0,6663135.0,6661141.0,6661934.0,6663141.0,6664135.0,3509.0,516.0,793.0,994.0,1994.0,-6663141.0,0.0,0.0,0.0,1.0,0.0,0.0,0.0,-0.020769192835938154,-9.249213876270776,-0.2561533783098934,-0.7788447313476512,6662154.0,6662224.0,70.0,372.5683632119973,9.243235230467585,9.454007657766821,3.085013943525224,220.0,3.064259122390302,1.0,-1.1353825416979078,-1.1526902023945222,-0.28730716756379865,-0.328845553235675,6663781.0,6663801.0,20.0,25.987119374009517,0.04499991781119908,0.12770192115579385,1.9655874464946448,2.5686265107010904,-9.977400529806582,-0.035212690583237435,0.5083333333333333
25,6693.883875,3.5079167,1,26,2,2,1,1,3,2,-32.69230769,n/a,n/a,6664141.0,6667651.0,0.0,0.0,0.0,6664652.0,6664658.0,6666650.0,6664658.0,6665451.0,6666657.0,6667651.0,3510.0,517.0,793.0,994.0,1992.0,-6666657.0,0.0,0.0,0.0,0.0,1.0,0.0,0.0,0.0,0.0,0.0,0.0,0.0,0.0,0.0,0.0,0.0,0.0,0.0,0.0,0.0,0.0,0.0,0.0,0.0,0.0,0.0,0.0,0.0,0.0,0.0,0.0,0.0,0.0,0.0,0.0,0.0
26,6697.400123,3.5077973,1,27,2,1,1,1,4,2,-32.69230769,n/a,n/a,6667657.0,6671167.0,0.0,0.0,0.0,6669184.0,6668174.0,6670166.0,6668174.0,6669167.0,6670174.0,6671167.0,3510.0,517.0,993.0,993.0,1992.0,-6670174.0,0.0,0.0,0.0,1.0,0.0,0.0,0.0,-0.28730716756379865,-9.948443368413997,-0.0692306427864579,-0.5469220780130157,6669167.0,6669237.0,70.0,378.8915347807392,9.67293863304565,9.819605893607761,3.092188244729938,0.0,3.077744550638328,0.0,0.0,0.0,0.0,0.0,0.0,0.0,0.0,0.0,0.0,0.0,0.0,0.0,-10.004519894038681,0.0070425381166467,0.49583333333333335
27,6700.916253,3.6495018,1,28,2,1,2,1,3,1,-32.69230769,n/a,n/a,6671173.0,6674824.0,0.0,0.0,0.0,6672933.0,6671834.0,6673825.0,6671834.0,6672623.0,6673831.0,6674824.0,3651.0,661.0,789.0,993.0,1991.0,-6673831.0,0.0,0.0,0.0,1.0,0.0,0.0,0.0,-0.28038410328515523,-9.806520550701759,-0.01384612855729079,0.41538385671874734,6672912.0,6672985.0,73.0,335.5807183354937,9.535801696504551,9.684108667472138,-3.096564969848773,289.0,-3.084012263773809,1.0,-10.806903338966078,-10.889980110309827,0.5607682065703105,0.5642297387096302,6673603.0,6673633.0,30.0,25.625990482125214,0.08314885532376885,0.17869688207386533,-3.0999500744912423,2.591206705913011,-10.085877986734985,0.1338082242162991,0.5375
28,6704.574092,3.5077978,1,29,2,2,1,2,5,1,-32.69230769,n/a,n/a,6674831.0,6678340.0,0.0,0.0,0.0,6676874.0,6675348.0,6677341.0,6675348.0,6676540.0,6677347.0,6678341.0,3509.0,517.0,1192.0,994.0,1993.0,-6677347.0,0.0,0.0,0.0,1.0,0.0,0.0,0.0,-0.16615354268749735,10.107673846822852,-0.45346071025129997,-1.3188437450820236,6676855.0,6676918.0,63.0,389.48389916144805,10.310209359000712,10.562963303957122,0.08403344154407406,315.0,0.08695125563515238,0.0,0.0,0.0,0.0,0.0,0.0,0.0,0.0,0.0,0.0,0.0,0.0,0.0,10.555946966758066,-0.866232188347615,0.7541666666666667
29,6708.090251,3.5078486,1,30,2,2,1,1,5,2,-32.69230769,n/a,n/a,6678347.0,6681857.0,0.0,0.0,0.0,6680390.0,6678864.0,6680857.0,6678864.0,6680057.0,6680864.0,6681857.0,3510.0,517.0,1193.0,993.0,1993.0,-6680864.0,0.0,0.0,0.0,1.0,0.0,0.0,0.0,-0.23538418547395523,9.148829444230408,-0.49153756378385255,-1.8969196123489445,6680372.0,6680434.0,62.0,419.6936224858338,9.488865272010038,9.920084387660358,0.1486554514198488,315.0,0.16686964863895967,0.0,0.0,0.0,0.0,0.0,0.0,0.0,0.0,0.0,0.0,0.0,0.0,0.0,10.555946966758066,-0.866232188347615,0.7541666666666667
30,6711.606416,3.5078594,1,31,2,1,1,1,4,2,-32.69230769,n/a,n/a,6681863.0,6685373.0,0.0,0.0,0.0,6683706.0,6682380.0,6684373.0,6682380.0,6683373.0,6684380.0,6685373.0,3510.0,517.0,993.0,993.0,1993.0,-6684380.0,0.0,0.0,0.0,1.0,0.0,0.0,0.0,-0.16961507482682103,-8.51536906273432,-0.41538385671874734,-1.3880743878684814,6683686.0,6683755.0,69.0,345.3407234144477,8.402245919756352,8.393566643153237,3.0255669671568137,313.0,2.9984125015910856,1.0,-9.799597486423115,-9.754597568611915,-1.561150994834626,-1.540381801998688,6684049.0,6684071.0,22.0,32.35395989145047,0.04956159777560787,0.198004479613775,-0.4324077755705323,2.5050844378018478,-9.661007947098737,-0.5281903587485458,0.6541666666666667
31,6715.122608,3.5078443,1,32,2,1,2,1,2,2,-32.69230769,n/a,n/a,6685380.0,6688889.0,0.0,0.0,0.0,6686746.0,6685896.0,6687889.0,6685896.0,6686489.0,6687896.0,6688889.0,3509.0,516.0,593.0,993.0,1993.0,-6687896.0,0.0,0.0,0.0,1.0,0.0,0.0,0.0,-0.3807685353255184,-8.504984466316353,-0.21807652477734077,-0.020769192835938154,6686730.0,6686784.0,54.0,371.63855147449897,8.126611512592632,8.367645203327097,-3.1173111038325962,241.0,-3.108492164874455,0.0,0.0,0.0,0.0,0.0,0.0,0.0,0.0,0.0,0.0,0.0,0.0,0.0,-9.823724132491343,-0.2746589865492449,0.4166666666666667
32,6718.638783,3.5078433,1,33,2,2,1,2,5,2,-32.69230769,n/a,n/a,6688896.0,6692405.0,0.0,0.0,0.0,6691012.0,6689412.0,6691405.0,6689412.0,6690606.0,6691412.0,6692405.0,3509.0,516.0,1194.0,993.0,1993.0,-6691412.0,0.0,0.0,0.0,1.0,0.0,0.0,0.0,0.1869227355234355,6.6080648539674085,-0.4742299030872381,-1.2496131022955657,6690996.0,6691057.0,61.0,380.24457438197663,6.467788278141895,6.89384613722787,0.12017286279524597,390.0,0.11675673519448615,1.0,1.3292283414999906,1.3707667271718669,-0.1730766069661447,-0.22153805691666445,6692286.0,6692308.0,22.0,15.757471547621373,0.0638274988976716,0.11354669661722634,0.8621700546671996,-0.9151007005533647,10.637305059454373,-0.9929978744472634,0.7916666666666666
33,6722.154975,3.991252,1,34,2,1,2,1,1,2,-32.69230769,n/a,n/a,6692412.0,6696405.0,0.0,0.0,0.0,6694195.0,6693412.0,6695404.0,6693412.0,6693805.0,6695411.0,6696405.0,3993.0,1000.0,393.0,994.0,1992.0,-6695411.0,0.0,1.0,0.0,0.0,0.0,0.0,0.0,0.0,0.0,0.0,0.0,0.0,0.0,0.0,0.0,0.0,0.0,0.0,0.0,0.0,0.0,0.0,0.0,0.0,0.0,0.0,0.0,0.0,0.0,0.0,0.0,0.0,0.0,0.0,0.0,0.0
34,6726.154514,3.5077179,1,35,2,1,1,1,2,2,-32.69230769,n/a,n/a,6696411.0,6699921.0,0.0,0.0,0.0,6698204.0,6696928.0,6698920.0,6696928.0,6697521.0,6698928.0,6699921.0,3510.0,517.0,593.0,993.0,1992.0,-6698928.0,0.0,0.0,0.0,1.0,0.0,0.0,0.0,-0.3911531317434855,-9.117675654976503,-0.4292299852760381,-1.280766891549471,6698186.0,6698265.0,79.0,373.98255392556547,8.76797071455185,9.041853914941566,3.0443202881524516,665.0,3.0376575228529794,1.0,-7.919985534770781,-8.26613874870307,-1.325766809360667,-1.2738438272708235,6698566.0,6698588.0,22.0,67.77544781940469,0.3500257756005342,0.4651351298217148,-2.992702705980296,2.885784088974423,-9.71524667556294,-0.4436799013487775,0.6291666666666667
35,6729.670578,3.5078473,1,36,2,2,2,2,5,1,-32.69230769,n/a,n/a,6699927.0,6703437.0,0.0,0.0,0.0,6701927.0,6700444.0,6702437.0,6700444.0,6701637.0,6702444.0,6703437.0,3510.0,517.0,1193.0,993.0,1993.0,-6702444.0,0.0,0.0,0.0,1.0,0.0,0.0,0.0,-0.15576894626953025,8.961906708706977,-0.2699995068671842,1.1042287524440024,6701907.0,6701998.0,91.0,391.14334607053763,9.220656845260033,9.558870425219505,-0.14959533629167113,270.0,-0.1486571687715078,0.0,0.0,0.0,0.0,0.0,0.0,0.0,0.0,0.0,0.0,0.0,0.0,0.0,9.489251973628763,0.79580680718114,0.7333333333333333
36,6733.186759,3.5078439,1,37,2,1,1,1,1,2,-32.69230769,n/a,n/a,6703444.0,6706953.0,0.0,0.0,0.0,6704937.0,6703960.0,6705953.0,6703960.0,6704354.0,6705960.0,6706953.0,3509.0,516.0,394.0,993.0,1993.0,-6705960.0,0.0,0.0,0.0,1.0,0.0,0.0,0.0,-0.2596149104492171,-8.76459937676557,-0.4465376459726526,-0.5157682887591105,6704918.0,6704987.0,69.0,342.16340066465176,8.505266230646932,8.679018568341203,3.1334528252275584,564.0,3.1096801074844422,0.0,0.0,0.0,0.0,0.0,0.0,0.0,0.0,0.0,0.0,0.0,0.0,0.0,-10.040679046348147,0.06338284304982424,0.4791666666666667
37,6736.703053,3.5077149,1,38,2,2,2,1,1,2,-32.69230769,n/a,n/a,6706960.0,6710469.0,0.0,0.0,0.0,6708176.0,6707476.0,6709469.0,6707476.0,6707869.0,6709476.0,6710469.0,3509.0,516.0,393.0,993.0,1993.0,-6709476.0,0.0,0.0,0.0,1.0,0.0,0.0,0.0,-0.3080763603997368,9.83075127567702,-0.18346120338411182,-0.15576894626953025,6708160.0,6708233.0,73.0,338.15505712077413,10.138865454042573,10.382663549309985,-0.002731300821661037,291.0,0.040351791601886386,0.0,0.0,0.0,0.0,0.0,0.0,0.0,0.0,0.0,0.0,0.0,0.0,0.0,10.338992052901261,-0.5281903587485458,0.3416666666666667
38,6740.21925,3.5077193,1,39,2,2,1,1,5,1,-32.69230769,n/a,n/a,6710476.0,6713985.0,0.0,0.0,0.0,6712436.0,6710993.0,6712986.0,6710993.0,6712186.0,6712992.0,6713985.0,3509.0,517.0,1193.0,993.0,1993.0,-6712992.0,0.0,0.0,0.0,0.0,1.0,0.0,0.0,0.0,0.0,0.0,0.0,0.0,0.0,0.0,0.0,0.0,0.0,0.0,0.0,0.0,0.0,0.0,0.0,0.0,0.0,0.0,0.0,0.0,0.0,0.0,0.0,0.0,0.0,0.0,0.0,0.0
39,6743.735247,3.5078747,1,40,2,1,1,1,4,2,-32.69230769,n/a,n/a,6713992.0,6717501.0,0.0,0.0,0.0,6715985.0,6714509.0,6716502.0,6714509.0,6715501.0,6716508.0,6717502.0,3509.0,517.0,992.0,994.0,1993.0,-6716508.0,0.0,0.0,0.0,1.0,0.0,0.0,0.0,-0.28730716756379865,-8.723060991093694,-0.17999967124479208,-1.3846128557291577,6715968.0,6716054.0,86.0,309.0412478060126,8.52132827060622,8.755613516308753,2.9997530471386082,467.0,2.991588424078409,1.0,-3.3092247251926876,-3.066917475440085,-0.8169215848802038,-0.8549984384127565,6716618.0,6716649.0,31.0,63.93431015806949,0.24528075761789714,0.4132002365742967,0.15586820139832566,-0.2713952808016395,-9.49829176170613,-0.7817217309478467,0.7291666666666666
40,6747.251468,3.5078164,1,41,2,1,1,2,2,1,-32.69230769,n/a,n/a,6717508.0,6721018.0,0.0,0.0,0.0,6718985.0,6718025.0,6720018.0,6718025.0,6718618.0,6720024.0,6721018.0,3510.0,517.0,593.0,994.0,1993.0,-6720024.0,0.0,0.0,0.0,1.0,0.0,0.0,0.0,-0.28730716756379865,-8.771522441044214,-0.0034615321393236813,-0.33230708537499865,6718962.0,6719032.0,70.0,337.8936299137195,8.490585857562552,8.744521503775562,3.1028523559263137,344.0,3.077420672393828,0.0,0.0,0.0,0.0,0.0,0.0,0.0,0.0,0.0,0.0,0.0,0.0,0.0,-10.067798410580252,0.10563807174970836,0.4666666666666667
41,6750.767687,3.5077737,1,42,2,2,2,2,1,1,-32.69230769,n/a,n/a,6721024.0,6724534.0,0.0,0.0,0.0,6722234.0,6721541.0,6723533.0,6721541.0,6721934.0,6723541.0,6724534.0,3510.0,517.0,393.0,993.0,1992.0,-6723541.0,0.0,0.0,0.0,1.0,0.0,0.0,0.0,-0.11423056059765394,9.51575185099864,-0.1765381391054684,-0.024230724975261835,6722216.0,6722258.0,42.0,406.2653591713197,9.631186780249513,9.542243105632512,-0.015814641180203894,282.0,-0.02176724362944502,1.0,9.491521126023377,9.218060087016866,-0.03807685353255263,0.01384612855729079,6722260.0,6722280.0,20.0,75.1439551073467,0.2783467907550277,0.46090401174268725,-2.9539528817854293,-2.83646764559283,10.348031840978628,-0.5422754349818392,0.3375
42,6754.283813,3.5078158,1,43,2,1,1,1,5,1,-32.69230769,n/a,n/a,6724540.0,6728050.0,0.0,0.0,0.0,6726657.0,6725057.0,6727050.0,6725057.0,6726250.0,6727057.0,6728050.0,3510.0,517.0,1193.0,993.0,1993.0,-6727057.0,0.0,0.0,0.0,0.0,1.0,0.0,0.0,0.0,0.0,0.0,0.0,0.0,0.0,0.0,0.0,0.0,0.0,0.0,0.0,0.0,0.0,0.0,0.0,0.0,0.0,0.0,0.0,0.0,0.0,0.0,0.0,0.0,0.0,0.0,0.0,0.0
43,6757.799963,3.5078746,1,44,2,1,2,2,1,1,-32.69230769,n/a,n/a,6728056.0,6731566.0,0.0,0.0,0.0,6729350.0,6728573.0,6730566.0,6728573.0,6728967.0,6730573.0,6731566.0,3510.0,517.0,394.0,993.0,1993.0,-6730573.0,0.0,0.0,0.0,1.0,0.0,0.0,0.0,-0.22499958905598813,-8.297292537956979,-0.3773070031861947,-0.588460463684892,6729333.0,6729405.0,72.0,311.81607979313,8.075054132125507,8.085078765540779,3.1154408126732793,366.0,3.078185701622961,0.0,0.0,0.0,0.0,0.0,0.0,0.0,0.0,0.0,0.0,0.0,0.0,0.0,-9.742366039795039,-0.40142467264889337,0.37916666666666665
44,6761.316168,3.5078471,1,45,2,2,2,2,5,1,-32.69230769,n/a,n/a,6731573.0,6735082.0,0.0,0.0,0.0,6733656.0,6732089.0,6734082.0,6732089.0,6733283.0,6734089.0,6735082.0,3509.0,516.0,1194.0,993.0,1993.0,-6734089.0,0.0,0.0,0.0,1.0,0.0,0.0,0.0,0.02769225711458158,8.07921601317964,-0.11423056059765394,1.0938441560260355,6733639.0,6733703.0,64.0,378.37025259624426,8.141650896189628,8.206650300921389,-0.14893199356570244,356.0,-0.1614041557022774,1.0,6.310373089985635,5.57306674430986,1.5473048662773334,1.7757659874726452,6734220.0,6734270.0,50.0,41.797990628526755,0.7718906213133985,0.7778826003672079,-2.8411154852172107,-2.7776136970801493,9.398854092855089,0.9366575695140859,0.775
45,6764.832345,3.5078612,1,46,2,2,2,2,5,1,-32.69230769,n/a,n/a,6735089.0,6738598.0,0.0,0.0,0.0,6737015.0,6735606.0,6737599.0,6735606.0,6736799.0,6737605.0,6738598.0,3509.0,517.0,1193.0,993.0,1993.0,-6737605.0,0.0,0.0,0.0,1.0,0.0,0.0,0.0,-0.1211536248763013,8.051523756065048,-0.14538434985156315,0.6888448957252552,6736999.0,6737061.0,62.0,340.31211531644027,8.215144186630326,8.353247977469556,-0.10172307079911357,200.0,-0.10045209287186214,1.0,-0.48115296736588153,-0.4880760316445289,-0.1626920105481776,-0.11423056059765394,6738155.0,6738176.0,21.0,23.90574405546779,0.04895345698021125,0.16564796672789386,-1.7126933813990832,-2.687290566896479,9.570610066325063,0.6690411210814916,0.6958333333333333
46,6768.348573,3.5077608,1,47,2,1,1,2,2,2,-32.69230769,n/a,n/a,6738605.0,6742114.0,0.0,0.0,0.0,6739999.0,6739122.0,6741115.0,6739122.0,6739715.0,6741121.0,6742114.0,3509.0,517.0,593.0,993.0,1993.0,-6741121.0,0.0,0.0,0.0,1.0,0.0,0.0,0.0,-0.0692306427864579,-7.9372931954673955,-0.33576861751432235,-0.49153756378385255,6739983.0,6740037.0,54.0,315.0184435115883,7.869604329159248,8.189427607728943,3.1217976152293456,268.0,3.1149604740705747,0.0,0.0,0.0,0.0,0.0,0.0,0.0,0.0,0.0,0.0,0.0,0.0,0.0,-10.149156503276554,0.23240375784936076,0.42916666666666664
47,6771.864673,3.507893,1,48,2,2,1,2,3,1,-32.69230769,n/a,n/a,6742121.0,6745631.0,0.0,0.0,0.0,6743698.0,6742638.0,6744630.0,6742638.0,6743431.0,6744638.0,6745631.0,3510.0,517.0,793.0,993.0,1992.0,-6744638.0,0.0,0.0,0.0,0.0,1.0,0.0,0.0,0.0,0.0,0.0,0.0,0.0,0.0,0.0,0.0,0.0,0.0,0.0,0.0,0.0,0.0,0.0,0.0,0.0,0.0,0.0,0.0,0.0,0.0,0.0,0.0,0.0,0.0,0.0,0.0,0.0
48,6775.380887,3.5078583,1,49,2,1,2,1,1,1,-32.69230769,n/a,n/a,6745637.0,6749147.0,0.0,0.0,0.0,6746947.0,6746154.0,6748147.0,6746154.0,6746547.0,6748154.0,6749147.0,3510.0,517.0,393.0,993.0,1993.0,-6748154.0,0.0,0.0,0.0,1.0,0.0,0.0,0.0,0.03461532139322895,-7.9026778740741666,-0.2284611211953118,-0.35653781035025656,6746925.0,6747001.0,76.0,310.1984772003976,7.938326455186754,8.112225934524172,3.1254579875457114,378.0,3.095064958891917,1.0,-1.1146133488619736,-1.0488442382148355,-0.15576894626953025,-0.15923047840885393,6748069.0,6748088.0,19.0,21.991250472266,0.06586014060163455,0.14005309414044648,0.05258306161095114,-0.8728935041998389,-9.760445615949772,-0.3732545201823066,0.3875
49,6778.897077,3.5078513,1,50,2,2,1,1,2,2,-32.69230769,n/a,n/a,6749153.0,6752663.0,0.0,0.0,0.0,6750730.0,6749670.0,6751663.0,6749670.0,6750263.0,6751670.0,6752663.0,3510.0,517.0,593.0,993.0,1993.0,-6751670.0,0.0,0.0,0.0,1.0,0.0,0.0,0.0,-0.22153805691666445,7.411140310290314,-0.3461532139322894,-0.49153756378385255,6750712.0,6750764.0,52.0,305.2986093798668,7.634062854497016,7.612548248065973,0.019045315982016676,449.0,0.04457673188676808,1.0,7.404217246011674,7.231140639045529,-0.49153756378385255,-0.5503836101523394,6750766.0,6750785.0,19.0,63.48501952269675,0.18280691740772678,0.3218294235655506,2.81385414680925,-2.8130394830383487,10.049718834425514,-0.07746791928312156,0.5208333333333334
50,6782.413258,3.507862,1,51,2,2,2,1,4,1,-32.69230769,n/a,n/a,6752670.0,6756179.0,0.0,0.0,0.0,6754419.0,6753186.0,6755179.0,6753186.0,6754180.0,6755186.0,6756179.0,3509.0,516.0,994.0,993.0,1993.0,-6755186.0,0.0,0.0,0.0,0.0,1.0,0.0,0.0,0.0,0.0,0.0,0.0,0.0,0.0,0.0,0.0,0.0,0.0,0.0,0.0,0.0,0.0,0.0,0.0,0.0,0.0,0.0,0.0,0.0,0.0,0.0,0.0,0.0,0.0,0.0,0.0,0.0
51,6785.929461,3.5078369,1,52,2,1,2,1,1,1,-32.69230769,n/a,n/a,6756186.0,6759695.0,0.0,0.0,0.0,6757596.0,6756702.0,6758695.0,6756702.0,6757095.0,6758702.0,6759695.0,3509.0,516.0,393.0,993.0,1993.0,-6758702.0,0.0,0.0,0.0,1.0,0.0,0.0,0.0,-0.14538434985156315,-9.616136283039,-0.21115346049869735,-0.15230741413020657,6757576.0,6757660.0,84.0,362.4246007086522,9.470934749914962,9.542717748827291,-3.1353792832563614,481.0,3.09659762555856,0.0,0.0,0.0,0.0,0.0,0.0,0.0,0.0,0.0,0.0,0.0,0.0,0.0,-9.868923072878175,-0.20423360538277002,0.4375
52,6789.445609,3.5078504,1,53,2,2,2,2,1,2,-32.69230769,n/a,n/a,6759702.0,6763211.0,0.0,0.0,0.0,6761128.0,6760219.0,6762212.0,6760219.0,6760611.0,6762218.0,6763211.0,3509.0,517.0,392.0,993.0,1993.0,-6762218.0,0.0,0.0,0.0,1.0,0.0,0.0,0.0,0.024230724975261835,7.968446984721305,-0.3599993424895802,-0.2007688640807263,6761108.0,6761162.0,54.0,302.9631725939282,7.9458118733624525,8.251651543886041,-0.020040889497705827,497.0,-0.03902300108055862,1.0,8.051523756065048,5.157682887591113,0.020769192835938154,0.2284611211953118,6761553.0,6761591.0,38.0,126.54597508987374,2.9012843551013097,2.91285821334311,-3.0699451684163823,-3.0272609082715367,10.112997350967088,-0.17606345291618325,0.44583333333333336
53,6792.961795,3.5078128,1,54,2,1,2,2,4,1,-32.69230769,n/a,n/a,6763218.0,6766728.0,0.0,0.0,0.0,6765235.0,6763735.0,6765728.0,6763735.0,6764727.0,6765734.0,6766728.0,3510.0,517.0,992.0,994.0,1993.0,-6765734.0,0.0,0.0,0.0,1.0,0.0,0.0,0.0,0.031153789253905263,-9.231906215574162,-0.1107690284583342,0.8584599705520762,6765221.0,6765295.0,74.0,289.11565219980696,9.313629019107859,9.326856668510874,-3.0373382344274207,494.0,-3.021426742857294,1.0,-4.9534524913710625,-1.8276889695624867,0.5676912708489539,0.048461449950519736,6765985.0,6766081.0,96.0,127.94668578281053,3.1685954619009618,3.351658769879669,0.16460988436331528,0.1890911123129697,-10.528827602525967,0.8239769596477308,0.7416666666666667
54,6796.477974,3.5078613,1,55,2,1,1,1,1,1,-32.69230769,n/a,n/a,6766734.0,6770244.0,0.0,0.0,0.0,6768084.0,6767251.0,6769244.0,6767251.0,6767644.0,6769251.0,6770244.0,3510.0,517.0,393.0,993.0,1993.0,-6769251.0,0.0,0.0,0.0,1.0,0.0,0.0,0.0,-0.16615354268749735,-8.809599294576767,-0.2596149104492171,-0.08307677134374868,6768071.0,6768115.0,44.0,307.26121693550556,8.645248416350537,8.621317408004055,-3.1211709835679406,427.0,-3.087764525409689,1.0,-8.816522358855414,-8.681522605421817,-0.0553845142291671,-0.024230724975261835,6768117.0,6768148.0,31.0,69.24987085037205,0.1385477968500707,0.4593415324900591,-0.22679884805387523,-0.26691298758739906,-10.194355443663389,0.3028291390158317,0.4083333333333333
55,6799.994165,3.5078355,1,56,2,1,1,2,1,2,-32.69230769,n/a,n/a,6770250.0,6773760.0,0.0,0.0,0.0,6771460.0,6770767.0,6772760.0,6770767.0,6771160.0,6772767.0,6773760.0,3510.0,517.0,393.0,993.0,1993.0,-6772767.0,0.0,0.0,0.0,1.0,0.0,0.0,0.0,-0.006923064278647363,-9.010368158657492,-0.22153805691666445,-0.294230231842446,6771433.0,6771517.0,84.0,281.00899932746717,9.00373854128328,9.182166662838997,3.1335190112552627,273.0,3.106525932747697,0.0,0.0,0.0,0.0,0.0,0.0,0.0,0.0,0.0,0.0,0.0,0.0,0.0,-10.357071629055994,0.5563605112151325,0.3333333333333333
56,6803.510335,3.5078467,1,57,2,1,1,2,1,2,-32.69230769,n/a,n/a,6773766.0,6777276.0,0.0,0.0,0.0,6775050.0,6774283.0,6776277.0,6774283.0,6774677.0,6776283.0,6777276.0,3510.0,517.0,394.0,993.0,1994.0,-6776283.0,0.0,0.0,0.0,1.0,0.0,0.0,0.0,-0.1349997534335921,-9.356521372589782,-0.2769225711458316,-0.14538434985156315,6775030.0,6775110.0,80.0,295.52827119934966,9.222459719414678,9.38242523510953,-3.1273293566537514,353.0,-3.098782783751486,1.0,-7.587678449395786,-6.736141543122353,-0.27346103900650787,-0.21807652477734077,6775610.0,6775642.0,32.0,54.88041818275685,0.8533361278899012,0.8513750713031509,-0.06494916896802361,0.15512227544072849,-10.266673748282324,0.4155097488821907,0.375
57,6807.026511,3.5078619,1,58,2,2,1,2,3,2,-32.69230769,n/a,n/a,6777283.0,6780792.0,0.0,0.0,0.0,6778976.0,6777799.0,6779792.0,6777799.0,6778593.0,6779799.0,6780792.0,3509.0,516.0,794.0,993.0,1993.0,-6779799.0,0.0,0.0,0.0,1.0,0.0,0.0,0.0,-0.2769225711458316,6.140758015158818,-0.44999917811197626,-0.5399990137343723,6778949.0,6779007.0,58.0,309.6029340676432,6.418311622089071,6.712334793349995,0.014022813252678365,356.0,0.05675715782209342,0.0,0.0,0.0,0.0,0.0,0.0,0.0,0.0,0.0,0.0,0.0,0.0,0.0,10.167236079431287,-0.26057391031594757,0.575
58,6810.542706,3.5078328,1,59,2,2,1,2,2,2,-32.69230769,n/a,n/a,6780799.0,6784308.0,0.0,0.0,0.0,6782325.0,6781316.0,6783308.0,6781316.0,6781909.0,6783315.0,6784308.0,3509.0,517.0,593.0,993.0,1992.0,-6783315.0,0.0,0.0,0.0,0.0,1.0,0.0,0.0,0.0,0.0,0.0,0.0,0.0,0.0,0.0,0.0,0.0,0.0,0.0,0.0,0.0,0.0,0.0,0.0,0.0,0.0,0.0,0.0,0.0,0.0,0.0,0.0,0.0,0.0,0.0,0.0,0.0
59,6814.058874,3.507843,1,60,2,1,1,1,5,2,-32.69230769,n/a,n/a,6784315.0,6787824.0,0.0,0.0,0.0,6784908.0,6784832.0,6786825.0,6784832.0,6786025.0,6786831.0,6787824.0,3509.0,517.0,1193.0,993.0,1993.0,-6786831.0,0.0,0.0,0.0,0.0,1.0,0.0,0.0,0.0,0.0,0.0,0.0,0.0,0.0,0.0,0.0,0.0,0.0,0.0,0.0,0.0,0.0,0.0,0.0,0.0,0.0,0.0,0.0,0.0,0.0,0.0,0.0,0.0,0.0,0.0,0.0,0.0
60,6817.575046,3.5078153,1,61,2,2,1,1,5,2,-32.69230769,n/a,n/a,6787831.0,6791341.0,0.0,0.0,0.0,6789948.0,6788348.0,6790341.0,6788348.0,6789540.0,6790347.0,6791341.0,3510.0,517.0,1192.0,994.0,1993.0,-6790347.0,0.0,0.0,0.0,1.0,0.0,0.0,0.0,0.04153838567187631,8.556907448406196,-0.5746143351276013,-1.8899965480703012,6789928.0,6789978.0,50.0,351.9697196781997,8.616364699842899,8.630562494820474,0.15326020186845465,388.0,0.16356619159332186,1.0,8.567292044824164,8.480753741341092,-1.8830734837916538,-1.9903809801106642,6789980.0,6790002.0,22.0,36.71509273515565,0.1378541865014726,0.21055677994496727,2.2494588175432058,2.6632402222111327,10.637305059454373,-0.9929978744472634,0.7916666666666666
61,6821.091225,3.5494914,1,62,2,2,2,1,1,1,-32.69230769,n/a,n/a,6791347.0,6794899.0,0.0,0.0,0.0,6792664.0,6791907.0,6793898.0,6791907.0,6792297.0,6793905.0,6794899.0,3552.0,560.0,390.0,994.0,1991.0,-6793905.0,0.0,0.0,0.0,1.0,0.0,0.0,0.0,-0.15576894626953025,8.446138419947863,-0.2319226533346355,-0.6092296565208302,6792643.0,6792709.0,66.0,346.98394634589346,8.61017833216237,8.808075816678917,0.04383508089931244,346.0,0.07710344625054576,0.0,0.0,0.0,0.0,0.0,0.0,0.0,0.0,0.0,0.0,0.0,0.0,0.0,10.28475332443706,-0.4436799013487775,0.36666666666666664
62,6824.649052,3.5078434,1,63,2,2,2,2,1,2,-32.69230769,n/a,n/a,6794905.0,6798414.0,0.0,0.0,0.0,6796138.0,6795422.0,6797415.0,6795422.0,6795815.0,6797422.0,6798414.0,3509.0,517.0,393.0,992.0,1993.0,-6797422.0,0.0,0.0,0.0,0.0,1.0,0.0,0.0,0.0,0.0,0.0,0.0,0.0,0.0,0.0,0.0,0.0,0.0,0.0,0.0,0.0,0.0,0.0,0.0,0.0,0.0,0.0,0.0,0.0,0.0,0.0,0.0,0.0,0.0,0.0,0.0,0.0
63,6828.165195,3.5078953,1,64,2,1,2,1,1,2,-32.69230769,n/a,n/a,6798421.0,6801930.0,0.0,0.0,0.0,6799665.0,6798938.0,6800931.0,6798938.0,6799331.0,6800938.0,6801931.0,3509.0,517.0,393.0,993.0,1993.0,-6800938.0,0.0,0.0,0.0,1.0,0.0,0.0,0.0,0.031153789253905263,-6.642680175360634,-0.2007688640807263,-0.13153822129426843,6799643.0,6799713.0,70.0,288.50773850954965,6.674193035052495,6.837608166014099,-3.1312195816720645,312.0,-3.105134651203596,1.0,-4.683452984503875,-4.274992192063775,-0.1765381391054684,-0.40153772816145655,6800117.0,6800148.0,31.0,43.6062991581394,0.46633146369954276,0.509315963490876,0.503493617340214,0.4575686565261426,-9.688127311330836,-0.4859351300486616,0.3541666666666667
64,6831.681423,3.5078576,1,65,2,1,2,1,2,1,-32.69230769,n/a,n/a,6801937.0,6805447.0,0.0,0.0,0.0,6803281.0,6802454.0,6804447.0,6802454.0,6803047.0,6804454.0,6805447.0,3510.0,517.0,593.0,993.0,1993.0,-6804454.0,0.0,0.0,0.0,0.0,1.0,0.0,0.0,0.0,0.0,0.0,0.0,0.0,0.0,0.0,0.0,0.0,0.0,0.0,0.0,0.0,0.0,0.0,0.0,0.0,0.0,0.0,0.0,0.0,0.0,0.0,0.0,0.0,0.0,0.0,0.0,0.0
65,6835.197615,3.507833,1,66,2,2,1,1,2,2,-32.69230769,n/a,n/a,6805454.0,6808963.0,0.0,0.0,0.0,6806863.0,6805970.0,6807964.0,6805970.0,6806563.0,6807970.0,6808963.0,3509.0,516.0,593.0,993.0,1994.0,-6807970.0,0.0,0.0,0.0,0.0,1.0,0.0,0.0,0.0,0.0,0.0,0.0,0.0,0.0,0.0,0.0,0.0,0.0,0.0,0.0,0.0,0.0,0.0,0.0,0.0,0.0,0.0,0.0,0.0,0.0,0.0,0.0,0.0,0.0,0.0,0.0,0.0
66,6838.722127,3.508028,1,67,2,2,1,1,4,2,-32.69230769,n/a,n/a,6808979.0,6812487.0,0.0,0.0,0.0,6810912.0,6809496.0,6811488.0,6809496.0,6810486.0,6811495.0,6812488.0,3508.0,517.0,990.0,993.0,1992.0,-6811495.0,0.0,0.0,0.0,1.0,0.0,0.0,0.0,0.22153805691666445,6.483449696951779,-0.34961474607161314,-0.7338448135364551,6810893.0,6810966.0,73.0,292.08725070815746,6.273688718158664,6.712703406868161,0.061283033509634016,407.0,0.06605363701438238,0.0,0.0,0.0,0.0,0.0,0.0,0.0,0.0,0.0,0.0,0.0,0.0,0.0,10.438429721752302,-0.683126197314785,0.7
67,6842.238289,3.6161817,1,68,2,1,2,2,1,1,-32.69230769,n/a,n/a,6812494.0,6816112.0,0.0,0.0,0.0,6813977.0,6813121.0,6815112.0,6813121.0,6813511.0,6815119.0,6816112.0,3618.0,627.0,390.0,993.0,1991.0,-6815119.0,0.0,0.0,0.0,1.0,0.0,0.0,0.0,0.031153789253905263,-8.539599787709582,-0.4084607924401,-0.5711528029882775,6813957.0,6814028.0,71.0,301.7544853988636,8.57229756642457,8.565543617858031,3.1226127036188958,446.0,3.106831085710054,0.0,0.0,0.0,0.0,0.0,0.0,0.0,0.0,0.0,0.0,0.0,0.0,0.0,-9.823724132491343,-0.2746589865492449,0.4166666666666667
68,6845.862801,3.5078173,1,69,2,1,1,2,2,1,-32.69230769,n/a,n/a,6816119.0,6819628.0,0.0,0.0,0.0,6817612.0,6816635.0,6818629.0,6816635.0,6817228.0,6818635.0,6819628.0,3509.0,516.0,593.0,993.0,1994.0,-6818635.0,0.0,0.0,0.0,1.0,0.0,0.0,0.0,-0.26653797472786445,-8.522292127012967,-0.4742299030872381,-0.7442294099544223,6817586.0,6817667.0,81.0,333.49586231626813,8.260168058622128,8.36843346488424,3.1088999035662344,358.0,3.087379052301623,1.0,-7.068448628497352,-8.276523345121042,-1.007305852542963,-0.9242290811992143,6818001.0,6818058.0,57.0,65.3171537163017,1.2109278553581582,1.3016879778633996,-3.072932840458895,-0.14678607168667102,-10.04971883442552,0.07746791928312156,0.475
69,6849.378984,3.507827,1,70,2,1,2,1,4,1,-32.69230769,n/a,n/a,6819635.0,6823144.0,0.0,0.0,0.0,6821518.0,6820152.0,6822145.0,6820152.0,6821144.0,6822151.0,6823144.0,3509.0,517.0,992.0,993.0,1993.0,-6822151.0,0.0,0.0,0.0,1.0,0.0,0.0,0.0,0.3253840210963513,-8.511907530594996,-0.22499958905598813,0.3115378925390605,6821496.0,6821569.0,73.0,318.7873984418097,8.853563939948229,8.831999368416763,-3.0809541992476035,352.0,-3.076093394691438,1.0,-10.789595678269464,-10.986903010210867,0.7165371528398408,0.6715372350286407,6822052.0,6822072.0,20.0,28.292717176134936,0.20237385167271385,0.244595887791609,2.917357902480683,-2.6716160151727766,-10.37515120521073,0.5845306636817234,0.6708333333333333
70,6852.903476,3.5080282,1,71,2,2,1,1,3,1,-32.69230769,n/a,n/a,6823161.0,6826670.0,0.0,0.0,0.0,6824934.0,6823678.0,6825669.0,6823678.0,6824467.0,6825676.0,6826670.0,3509.0,517.0,789.0,994.0,1991.0,-6825676.0,0.0,0.0,0.0,1.0,0.0,0.0,0.0,0.1903842676627592,9.325367583335881,-0.36692240676822757,-0.917306016920567,6824914.0,6824994.0,80.0,409.706039989282,9.151548628289675,9.29646963996194,0.06017734901155436,447.0,0.05886514817718704,0.0,0.0,0.0,0.0,0.0,0.0,0.0,0.0,0.0,0.0,0.0,0.0,0.0,10.257633960204961,-0.40142467264889337,0.6166666666666667
71,6856.419669,3.4994931,1,72,2,2,2,1,2,1,-32.69230769,n/a,n/a,6826675.0,6830177.0,0.0,0.0,0.0,6828259.0,6827185.0,6829176.0,6827185.0,6827775.0,6829183.0,6830177.0,3502.0,510.0,590.0,994.0,1991.0,-6829183.0,0.0,0.0,0.0,1.0,0.0,0.0,0.0,1.1734593952304604,9.076137269304631,-0.3599993424895802,0.14192281771223947,6828247.0,6828321.0,74.0,377.58433547683234,7.9186011034956865,8.051426278968059,-0.0634277262952988,472.0,-0.06539563020958762,1.0,0.26653797472786445,0.24576878189192627,-0.22499958905598813,-0.28038410328515523,6829549.0,6829575.0,26.0,29.625942990091723,0.05915068712582464,0.19544633214258353,1.9295669970654765,-0.4002406570339677,9.93220158941975,0.10563807174970836,0.5291666666666667
72,6859.927503,3.5078619,1,73,2,2,2,1,3,1,-32.69230769,n/a,n/a,6830183.0,6833693.0,0.0,0.0,0.0,6831900.0,6830700.0,6832693.0,6830700.0,6831493.0,6832700.0,6833693.0,3510.0,517.0,793.0,993.0,1993.0,-6832700.0,0.0,0.0,0.0,1.0,0.0,0.0,0.0,0.08307677134374868,6.251527043617144,-0.24576878189192627,0.578075867266925,6831880.0,6831938.0,58.0,347.1254046204769,6.223222538802337,6.696861542583879,-0.13277207187995477,387.0,-0.13897308632891597,0.0,0.0,0.0,0.0,0.0,0.0,0.0,0.0,0.0,0.0,0.0,0.0,0.0,9.796604768259243,0.31691421524912905,0.5916666666666667
73,6863.443693,3.5078393,1,74,2,2,2,1,4,1,-32.69230769,n/a,n/a,6833699.0,6837208.0,0.0,0.0,0.0,6835399.0,6834216.0,6836209.0,6834216.0,6835209.0,6836216.0,6837209.0,3509.0,517.0,993.0,993.0,1993.0,-6836216.0,0.0,0.0,0.0,1.0,0.0,0.0,0.0,0.39807619602213284,8.051523756065048,-0.2769225711458316,0.1903842676627592,6835385.0,6835439.0,54.0,424.02983771517984,7.667700778976977,8.161616010784966,-0.06098263627694408,176.0,-0.075991200516926,0.0,0.0,0.0,0.0,0.0,0.0,0.0,0.0,0.0,0.0,0.0,0.0,0.0,9.814684344413976,0.2887440627825383,0.5833333333333334
74,6866.959852,3.5078556,1,75,2,2,2,1,5,2,-32.69230769,n/a,n/a,6837216.0,6840725.0,0.0,0.0,0.0,6839226.0,6837732.0,6839725.0,6837732.0,6838926.0,6839732.0,6840725.0,3509.0,516.0,1194.0,993.0,1993.0,-6839732.0,0.0,0.0,0.0,1.0,0.0,0.0,0.0,0.21115346049869735,7.601524577953073,-0.43269151741536177,0.578075867266925,6839203.0,6839267.0,64.0,391.8625789719949,7.459171264935623,7.676408587426083,-0.13592482135082454,277.0,-0.1397926000869794,0.0,0.0,0.0,0.0,0.0,0.0,0.0,0.0,0.0,0.0,0.0,0.0,0.0,9.480212185551396,0.8098918834144374,0.7375
75,6870.476042,3.5078307,1,76,2,2,1,1,5,2,-32.69230769,n/a,n/a,6840732.0,6844241.0,0.0,0.0,0.0,6842665.0,6841248.0,6843242.0,6841248.0,6842442.0,6843248.0,6844241.0,3509.0,516.0,1194.0,993.0,1994.0,-6843248.0,0.0,0.0,0.0,1.0,0.0,0.0,0.0,0.09692289990103947,8.04806222392573,-0.5538451422916632,-0.8965368240846289,6842647.0,6842703.0,56.0,324.33076350834716,7.958520851189742,7.971394455999835,0.04307303786180926,205.0,0.0826003015409125,0.0,0.0,0.0,0.0,0.0,0.0,0.0,0.0,0.0,0.0,0.0,0.0,0.0,10.438429721752302,-0.683126197314785,0.7
76,6873.992192,3.5078558,1,77,2,1,1,2,4,1,-32.69230769,n/a,n/a,6844248.0,6847757.0,0.0,0.0,0.0,6846281.0,6844765.0,6846758.0,6844765.0,6845757.0,6846765.0,6847757.0,3509.0,517.0,992.0,992.0,1993.0,-6846765.0,0.0,0.0,0.0,1.0,0.0,0.0,0.0,0.14192281771223947,-6.469603568394489,-0.3634608746289039,-1.142305605976555,6846262.0,6846331.0,69.0,377.4745732910773,6.65724269271697,6.925871877293153,3.0243320256705126,505.0,3.019841335510214,1.0,0.14192281771223947,-6.469603568394489,-0.3634608746289039,-1.142305605976555,6846262.0,6846331.0,69.0,377.4745732910773,6.65724269271697,6.925871877293153,3.0243320256705126,3.019841335510214,-9.453092821319293,-0.8521471121143215,0.75
77,6877.508381,3.5078539,1,78,2,1,2,1,3,1,-32.69230769,n/a,n/a,6847764.0,6851274.0,0.0,0.0,0.0,6849574.0,6848281.0,6850274.0,6848281.0,6849074.0,6850280.0,6851274.0,3510.0,517.0,793.0,994.0,1993.0,-6850280.0,0.0,0.0,0.0,1.0,0.0,0.0,0.0,0.22499958905598813,-8.491138337759057,-0.15576894626953025,0.6923064278645789,6849551.0,6849627.0,76.0,342.75043733249686,8.757299366784055,8.98896181872843,-3.0445985276615875,477.0,-3.034720232544885,1.0,-0.39807619602213284,0.06576911064713421,-0.08307677134374868,-0.1765381391054684,6850854.0,6850913.0,59.0,99.98243422228927,0.4731675134484592,1.1741535385548403,0.19883027909502085,2.2160663016678455,-10.293793112514427,0.4577649775820709,0.6333333333333333
78,6881.02456,3.507852,1,79,2,1,1,1,3,1,-32.69230769,n/a,n/a,6851280.0,6854790.0,0.0,0.0,0.0,6853057.0,6851797.0,6853790.0,6851797.0,6852590.0,6853797.0,6854790.0,3510.0,517.0,793.0,993.0,1993.0,-6853797.0,0.0,0.0,0.0,1.0,0.0,0.0,0.0,0.3080763603997368,-8.314600198653594,-0.48115296736588153,-0.9449982740351486,6853030.0,6853103.0,73.0,317.26777474031405,8.635143514184747,8.856191130491819,3.087850795118522,440.0,3.0825384535963223,1.0,-2.9388407862851365,-2.8592255470807117,-0.294230231842446,-0.16615354268749735,6853839.0,6853868.0,29.0,30.66382614705714,0.1508052539484986,0.2679726722562036,-1.014630096674458,-1.0724805325845828,-9.742366039795039,-0.40142467264889337,0.6166666666666667
79,6884.540741,3.507863,1,80,2,1,1,2,2,1,-32.69230769,n/a,n/a,6854796.0,6858306.0,0.0,0.0,0.0,6856172.0,6855313.0,6857306.0,6855313.0,6855906.0,6857313.0,6858306.0,3510.0,517.0,593.0,993.0,1993.0,-6857313.0,0.0,0.0,0.0,1.0,0.0,0.0,0.0,-0.024230724975261835,-7.103063949890581,-0.33576861751432235,-0.34961474607161314,6856152.0,6856222.0,70.0,316.5052268610383,7.078846766348389,7.341952100118449,3.1396366658642116,246.0,3.0882909698748255,1.0,-4.520760973955701,-3.603454957035134,-0.6265373172174447,-0.5573066744309868,6856564.0,6856617.0,53.0,41.41400094869207,0.9199147844117419,0.9229382080013714,-0.07532889082834011,0.2695415109704796,-10.167236079431287,0.26057391031594757,0.42083333333333334
80,6888.056935,3.5078483,1,81,2,1,2,2,2,1,-32.69230769,n/a,n/a,6858312.0,6861821.0,0.0,0.0,0.0,6859939.0,6858829.0,6860822.0,6858829.0,6859423.0,6860829.0,6861821.0,3509.0,517.0,594.0,992.0,1993.0,-6860829.0,0.0,0.0,0.0,1.0,0.0,0.0,0.0,0.16615354268749735,-9.027675819354107,-0.27346103900650787,-0.15923047840885393,6859915.0,6860000.0,85.0,372.1719455506405,9.19453897481069,9.450318109950311,-3.1291685940819898,492.0,-3.093957282772742,0.0,0.0,0.0,0.0,0.0,0.0,0.0,0.0,0.0,0.0,0.0,0.0,0.0,-10.094917774812352,0.1478933004495925,0.5416666666666666
81,6891.573118,3.5078581,1,82,2,2,1,1,1,1,-32.69230769,n/a,n/a,6861829.0,6865338.0,0.0,0.0,0.0,6863222.0,6862345.0,6864338.0,6862345.0,6862738.0,6864345.0,6865338.0,3509.0,516.0,393.0,993.0,1993.0,-6864345.0,0.0,0.0,0.0,1.0,0.0,0.0,0.0,-0.05884604636849078,8.20383117019526,-0.28384563542447894,0.33230708537499865,6863205.0,6863260.0,55.0,399.4604922538636,8.28561880371468,8.71075838198302,-0.07443282667729363,467.0,-0.08195319205401627,1.0,8.574215109102811,1.56461252697395,0.03807685353255263,0.21461499263802103,6863533.0,6863598.0,65.0,242.96637952962286,7.0118253025832304,7.14640666614697,-3.116412791312513,3.0921664043030335,9.850843496723442,0.23240375784936076,0.42916666666666664
82,6895.089313,3.5078173,1,83,2,1,2,1,1,2,-32.69230769,n/a,n/a,6865345.0,6868854.0,0.0,0.0,0.0,6867528.0,6865861.0,6867855.0,6865861.0,6866254.0,6867861.0,6868854.0,3509.0,516.0,393.0,993.0,1994.0,-6867861.0,0.0,0.0,0.0,0.0,0.0,0.0,1.0,-0.1488458819908829,-10.2357505359778,-0.02769225711458158,1.1699978630911387,6867511.0,6867581.0,70.0,380.20211856577765,10.157760930572314,10.628139937827706,-3.0234088546889324,1257.0,-3.0181668015404592,0.0,0.0,0.0,0.0,0.0,0.0,0.0,0.0,0.0,0.0,0.0,0.0,0.0,0.0,0.0,0.0
83,6898.613833,3.5077919,1,84,2,1,1,1,5,2,-32.69230769,n/a,n/a,6868869.0,6872378.0,0.0,0.0,0.0,6870929.0,6869386.0,6871379.0,6869386.0,6870579.0,6871386.0,6872379.0,3509.0,517.0,1193.0,993.0,1993.0,-6871386.0,0.0,0.0,0.0,1.0,0.0,0.0,0.0,0.04153838567187631,-8.383830841440052,-0.49153756378385255,-1.5715355912525932,6870909.0,6870978.0,69.0,356.08429271744836,8.494306466834182,8.612381700440746,3.0141038237703817,330.0,2.9996387581967405,1.0,-3.0980712646939903,-2.8834562720559695,-1.3223052772213473,-1.0349981096575447,6871595.0,6871618.0,23.0,38.35555334336224,0.3586153978826799,0.36674275498818243,-0.9292257175338975,-0.980175928180017,-9.425973457087194,-0.8944023408142017,0.7625
84,6902.130117,3.5077172,1,85,2,2,1,2,3,1,-32.69230769,n/a,n/a,6872386.0,6875895.0,0.0,0.0,0.0,6873986.0,6872902.0,6874895.0,6872902.0,6873696.0,6874902.0,6875895.0,3509.0,516.0,794.0,993.0,1993.0,-6874902.0,0.0,0.0,0.0,1.0,0.0,0.0,0.0,0.05884604636849078,7.44921716382287,-0.4361530495546855,-0.28730716756379865,6873963.0,6874031.0,68.0,362.2307733089727,7.391869881855979,7.680721738806554,-0.020137792616520333,267.0,-0.05094865038891985,1.0,6.614987918246048,3.94268510668878,0.6057681243815065,0.21461499263802103,6874328.0,6874413.0,85.0,82.93442208407379,2.7007782376806904,2.7099729155949404,2.9962517119302845,2.9825337790949518,10.067798410580249,-0.10563807174970836,0.5291666666666667
85,6905.646168,3.5080747,1,86,2,2,1,2,4,2,-32.69230769,n/a,n/a,6875902.0,6879411.0,0.0,0.0,0.0,6877745.0,6876418.0,6878411.0,6876418.0,6877411.0,6878418.0,6879411.0,3509.0,516.0,993.0,993.0,1993.0,-6878418.0,0.0,0.0,0.0,0.0,1.0,0.0,0.0,0.0,0.0,0.0,0.0,0.0,0.0,0.0,0.0,0.0,0.0,0.0,0.0,0.0,0.0,0.0,0.0,0.0,0.0,0.0,0.0,0.0,0.0,0.0,0.0,0.0,0.0,0.0,0.0,0.0
86,6909.162353,3.5078577,1,87,2,1,1,1,2,2,-32.69230769,n/a,n/a,6879418.0,6882927.0,0.0,0.0,0.0,6880851.0,6879934.0,6881927.0,6879934.0,6880527.0,6881934.0,6882927.0,3509.0,516.0,593.0,993.0,1993.0,-6881934.0,0.0,0.0,0.0,1.0,0.0,0.0,0.0,-0.1107690284583342,-8.878829937363225,-0.4603837745299434,-0.7061525564218697,6880835.0,6880894.0,59.0,352.5224889631538,8.771504682574061,9.316168913890087,3.113569987064935,308.0,3.1100046509633574,1.0,-7.532293935166619,-7.556524660141877,-0.7199986849791604,-0.7788447313476512,6881309.0,6881329.0,20.0,27.698266067049772,0.06363949407427084,0.1873389380703711,1.9614033704925398,-2.6614176239862624,-10.103957562889718,0.1619783766828859,0.45
87,6912.6785,3.507858,1,88,2,1,2,1,3,1,-32.69230769,n/a,n/a,6882934.0,6886443.0,0.0,0.0,0.0,6884534.0,6883451.0,6885444.0,6883451.0,6884243.0,6885450.0,6886443.0,3509.0,517.0,792.0,993.0,1993.0,-6885450.0,0.0,0.0,0.0,1.0,0.0,0.0,0.0,-0.15230741413020657,-8.117292866712187,-0.24923031403124998,0.2526918461705697,6884513.0,6884588.0,75.0,315.5768740521895,7.98078436713737,8.163264539347823,-3.078659788283471,270.0,-3.0685933475184033,1.0,-8.14498512382677,-8.134600527408802,0.328845553235675,0.3426916817929658,6884610.0,6884629.0,19.0,18.407338842227713,0.0173076606966129,0.08549353717360643,-0.9272952180016577,-2.125103822996427,-10.067798410580252,0.10563807174970836,0.5291666666666667
88,6916.19469,3.507865,1,89,2,2,2,2,3,2,-32.69230769,n/a,n/a,6886450.0,6889960.0,0.0,0.0,0.0,6888277.0,6886967.0,6888959.0,6886967.0,6887760.0,6888966.0,6889960.0,3510.0,517.0,793.0,994.0,1992.0,-6888966.0,0.0,0.0,0.0,1.0,0.0,0.0,0.0,-0.2526918461705697,8.238446491588489,-0.34961474607161314,0.7338448135364551,6888254.0,6888311.0,57.0,338.934200847958,8.559983346261124,8.56429572213335,-0.12691304684942586,494.0,-0.12766375070792574,0.0,0.0,0.0,0.0,0.0,0.0,0.0,0.0,0.0,0.0,0.0,0.0,0.0,9.688127311330836,0.4859351300486616,0.6416666666666667
89,6919.710865,3.5078354,1,90,2,2,2,1,2,2,-32.69230769,n/a,n/a,6889966.0,6893476.0,0.0,0.0,0.0,6891316.0,6890483.0,6892475.0,6890483.0,6891076.0,6892482.0,6893476.0,3510.0,517.0,593.0,994.0,1992.0,-6892482.0,0.0,0.0,0.0,1.0,0.0,0.0,0.0,-0.0034615321393236813,8.681522605421817,-0.31499942467838415,0.03461532139322895,6891296.0,6891360.0,64.0,372.9277687143628,8.69201817418483,9.001866571874073,-0.04023335875054784,220.0,-0.0442359425836444,1.0,0.33230708537499865,0.6957679600039025,0.2423072497526026,0.22499958905598813,6892506.0,6892536.0,30.0,39.5896318410388,0.3638727284433349,0.40108986648196093,0.047583103276983396,-0.43662715981354844,10.194355443663389,-0.3028291390158317,0.4083333333333333
90,6923.227034,3.5078509,1,91,2,2,2,2,4,2,-32.69230769,n/a,n/a,6893482.0,6896992.0,0.0,0.0,0.0,6895249.0,6893999.0,6895992.0,6893999.0,6894992.0,6895999.0,6896992.0,3510.0,517.0,993.0,993.0,1993.0,-6895999.0,0.0,0.0,0.0,1.0,0.0,0.0,0.0,0.2769225711458316,9.449982740351501,-0.27346103900650787,0.5953835279635394,6895232.0,6895294.0,62.0,381.94852297972153,9.21411546212771,9.738050357020246,-0.0944352510531559,240.0,-0.08934041446859131,0.0,0.0,0.0,0.0,0.0,0.0,0.0,0.0,0.0,0.0,0.0,0.0,0.0,9.742366039795035,0.40142467264889337,0.6166666666666667
91,6926.743219,3.5078196,1,92,2,2,1,1,5,1,-32.69230769,n/a,n/a,6896998.0,6900507.0,0.0,0.0,0.0,6899091.0,6897515.0,6899508.0,6897515.0,6898708.0,6899515.0,6900507.0,3509.0,517.0,1193.0,992.0,1993.0,-6899515.0,0.0,0.0,0.0,1.0,0.0,0.0,0.0,0.22499958905598813,8.335369391489529,-0.418845388858071,-1.4192281771223867,6899077.0,6899157.0,80.0,350.134636562188,8.171833579759278,8.515896015448503,0.1227262459213476,369.0,0.11815360182477809,1.0,4.56922242390622,4.589991616742155,-0.6334603814960881,-0.6680757028893171,6899726.0,6899748.0,22.0,31.435633491044435,0.04036805477370386,0.13953882155620054,1.0303768265243793,2.3737365502497116,10.610185695222274,-0.9507426457473832,0.7791666666666667
92,6930.259373,3.5079025,1,93,2,2,1,2,4,1,-32.69230769,n/a,n/a,6900515.0,6904024.0,0.0,0.0,0.0,6902264.0,6901031.0,6903024.0,6901031.0,6902025.0,6903031.0,6904024.0,3509.0,516.0,994.0,993.0,1993.0,-6903031.0,0.0,0.0,0.0,1.0,0.0,0.0,0.0,0.15230741413020657,8.54998438412755,-0.5573066744309868,-1.0384596417968683,6902246.0,6902320.0,74.0,364.6297804107487,8.411449736545343,8.54878257342389,0.05723338605817658,221.0,0.067672480939432,0.0,0.0,0.0,0.0,0.0,0.0,0.0,0.0,0.0,0.0,0.0,0.0,0.0,10.239554384050221,-0.3732545201823066,0.6083333333333333
93,6933.775557,3.5078859,1,94,2,1,2,2,1,1,-32.69230769,n/a,n/a,6904031.0,6907540.0,0.0,0.0,0.0,6905531.0,6904547.0,6906541.0,6904547.0,6904940.0,6906547.0,6907540.0,3509.0,516.0,393.0,993.0,1994.0,-6906547.0,0.0,0.0,0.0,0.0,1.0,0.0,0.0,0.0,0.0,0.0,0.0,0.0,0.0,0.0,0.0,0.0,0.0,0.0,0.0,0.0,0.0,0.0,0.0,0.0,0.0,0.0,0.0,0.0,0.0,0.0,0.0,0.0,0.0,0.0,0.0,0.0
94,6937.291751,3.6494812,1,95,2,1,1,1,5,1,-32.69230769,n/a,n/a,6907547.0,6911198.0,0.0,0.0,0.0,6909706.0,6908207.0,6910198.0,6908207.0,6909397.0,6910205.0,6911198.0,3651.0,660.0,1190.0,993.0,1991.0,-6910205.0,0.0,0.0,0.0,1.0,0.0,0.0,0.0,0.020769192835938154,-8.401138502136666,-0.3599993424895802,-1.7480737303580616,6909689.0,6909758.0,69.0,393.175215911704,8.53553043043578,8.631179592444244,2.978244094238782,292.0,2.9727517664086958,1.0,-1.391535920007805,-1.2876899558281183,-0.9899981918463486,-1.0176904489609302,6911038.0,6911063.0,25.0,18.685505957820357,0.1074748592951342,0.11769209273697694,0.26060239174732686,-2.6516353273360886,-9.47117239747403,-0.8239769596477308,0.7416666666666667
95,6940.949574,3.641223,1,96,2,1,2,1,1,1,-32.69230769,n/a,n/a,6911205.0,6914848.0,0.0,0.0,0.0,6912515.0,6911855.0,6913848.0,6911855.0,6912248.0,6913854.0,6914848.0,3643.0,650.0,393.0,994.0,1993.0,-6913854.0,0.0,0.0,0.0,0.0,1.0,0.0,0.0,0.0,0.0,0.0,0.0,0.0,0.0,0.0,0.0,0.0,0.0,0.0,0.0,0.0,0.0,0.0,0.0,0.0,0.0,0.0,0.0,0.0,0.0,0.0,0.0,0.0,0.0,0.0,0.0,0.0
96,6944.599129,3.5077895,1,97,2,1,2,2,1,2,-32.69230769,n/a,n/a,6914854.0,6918364.0,0.0,0.0,0.0,6915997.0,6915371.0,6917363.0,6915371.0,6915764.0,6917370.0,6918364.0,3510.0,517.0,393.0,994.0,1992.0,-6917370.0,0.0,0.0,0.0,1.0,0.0,0.0,0.0,-0.10038443204036315,-8.041139159647082,-0.46384530666926704,-0.7199986849791604,6915980.0,6916054.0,74.0,332.7254910761703,7.944885159473864,8.324855256478482,3.1093457711545396,216.0,3.084179767437035,1.0,-4.648837663110646,-3.6415318105676864,0.04153838567187631,0.2319226533346355,6916493.0,6916519.0,26.0,72.1314049103887,1.0251396246076838,1.0108918499212687,-0.18679992989213995,-0.1859789974508436,-9.579649854402433,-0.6549560448481943,0.30416666666666664
97,6948.123618,3.5078156,1,98,2,2,1,2,5,2,-32.69230769,n/a,n/a,6918379.0,6921888.0,0.0,0.0,0.0,6920412.0,6918895.0,6920889.0,6918895.0,6920089.0,6920895.0,6921888.0,3509.0,516.0,1194.0,993.0,1994.0,-6920895.0,0.0,0.0,0.0,1.0,0.0,0.0,0.0,0.2007688640807263,8.809599294576767,-0.4257684531367144,-1.3153822129427,6920394.0,6920449.0,55.0,375.1430742573003,8.654673536458251,8.712151029103513,0.10297186012135212,305.0,0.11228066759987662,1.0,8.809599294576767,8.726522523233013,-1.3223052772213473,-1.3673051950325432,6920451.0,6920470.0,19.0,35.866736897699006,0.0944814401875657,0.23091299475011307,2.645169900184942,2.9147938055359073,10.5469071786807,-0.8521471121143215,0.75
98,6951.639749,3.6244956,1,99,2,2,1,2,4,1,-32.69230769,n/a,n/a,6921895.0,6925521.0,0.0,0.0,0.0,6923771.0,6922528.0,6924521.0,6922528.0,6923521.0,6924528.0,6925521.0,3626.0,633.0,993.0,993.0,1993.0,-6924528.0,0.0,0.0,0.0,1.0,0.0,0.0,0.0,0.3599993424895802,9.01382969079682,-0.40153772816145655,-0.713075620700517,6923752.0,6923797.0,45.0,349.82460273532234,8.659436214660346,8.618189712936912,0.03598446008205158,231.0,0.04660876126637695,1.0,9.010368158657492,8.678061073282498,-0.7096140885611933,-0.7996139241835893,6923799.0,6923833.0,34.0,87.74147567074829,0.3442789122244962,0.5514384754306024,2.877104271040556,-2.971284063249035,10.248594172127595,-0.38733959641559995,0.6125
99,6955.27258,3.5079488,1,100,2,2,2,2,2,2,-32.69230769,n/a,n/a,6925528.0,6929038.0,0.0,0.0,0.0,6926971.0,6926044.0,6928037.0,6926044.0,6926638.0,6928044.0,6929038.0,3510.0,516.0,594.0,994.0,1993.0,-6928044.0,0.0,0.0,0.0,1.0,0.0,0.0,0.0,0.1730766069661447,8.598445834078072,-0.33576861751432235,-0.5676912708489539,6926947.0,6926999.0,52.0,355.0550809567124,8.428560655906466,8.387803801860459,0.027519755664494962,309.0,0.042106448769471304,1.0,8.57767664124213,8.349215520046823,-0.5746143351276013,-0.4776914352265578,6927001.0,6927020.0,19.0,48.516363792446505,0.24817036975240384,0.3437913141273946,-2.7403638545849307,2.704965493776248,10.103957562889722,-0.1619783766828859,0.45
100,7053.425809,4.0076553,2,1,2,1,2,2,5,1,-32.69230769,n/a,n/a,7023682.0,7027689.0,0.0,0.0,0.0,7026081.0,7024688.0,7026690.0,7024688.0,7025888.0,7026697.0,7027690.0,4007.0,1006.0,1200.0,993.0,2002.0,-7026697.0,0.0,1.0,0.0,0.0,0.0,0.0,0.0,0.0,0.0,0.0,0.0,0.0,0.0,0.0,0.0,0.0,0.0,0.0,0.0,0.0,0.0,0.0,0.0,0.0,0.0,0.0,0.0,0.0,0.0,0.0,0.0,0.0,0.0,0.0,0.0,0.0
101,7057.441798,3.5078426,2,2,2,2,1,2,3,2,-32.69230769,n/a,n/a,7027696.0,7031205.0,0.0,0.0,0.0,7029346.0,7028213.0,7030206.0,7028213.0,7029005.0,7030212.0,7031205.0,3509.0,517.0,792.0,993.0,1993.0,-7030212.0,0.0,0.0,0.0,1.0,0.0,0.0,0.0,0.09692289990103947,9.643828540153581,-0.18346120338411182,-0.8411523098554617,7029333.0,7029386.0,53.0,369.48691613241476,9.569533159742814,9.915590685236857,0.06878182714742909,328.0,0.06742736984356434,0.0,0.0,0.0,0.0,0.0,0.0,0.0,0.0,0.0,0.0,0.0,0.0,0.0,10.131076927121821,-0.20423360538277002,0.5583333333333333
102,7060.957976,3.7494842,2,3,2,1,1,1,1,2,-32.69230769,n/a,n/a,7031212.0,7034963.0,0.0,0.0,0.0,7032789.0,7031972.0,7033964.0,7031972.0,7032362.0,7033970.0,7034964.0,3751.0,760.0,390.0,994.0,1992.0,-7033970.0,0.0,0.0,0.0,1.0,0.0,0.0,0.0,0.21461499263802103,-9.92767417557806,-0.2284611211953118,0.22499958905598813,7032764.0,7032823.0,59.0,346.52993133064314,10.152421198288359,10.441074654790626,-3.096912511620244,402.0,-3.0822138507732215,0.0,0.0,0.0,0.0,0.0,0.0,0.0,0.0,0.0,0.0,0.0,0.0,0.0,-10.221474807895492,0.3450843677157158,0.3958333333333333
103,7064.715774,3.5078766,2,4,2,2,1,2,1,2,-32.69230769,n/a,n/a,7034970.0,7038480.0,0.0,0.0,0.0,7036380.0,7035487.0,7037479.0,7035487.0,7035880.0,7037487.0,7038480.0,3510.0,517.0,393.0,993.0,1992.0,-7037487.0,0.0,0.0,0.0,1.0,0.0,0.0,0.0,0.28038410328515523,8.401138502136666,-0.2561533783098934,-0.30461482826041314,7036360.0,7036401.0,41.0,390.5779140652135,8.120898996945934,8.09822836189411,0.0059675335945460145,480.0,0.02051871035969352,0.0,0.0,0.0,0.0,0.0,0.0,0.0,0.0,0.0,0.0,0.0,0.0,0.0,9.868923072878175,0.20423360538277002,0.4375
104,7068.231982,3.5161781,2,5,2,1,2,1,5,1,-32.69230769,n/a,n/a,7038486.0,7042004.0,0.0,0.0,0.0,7040386.0,7039011.0,7041005.0,7039012.0,7040203.0,7041012.0,7042005.0,3518.0,526.0,1191.0,993.0,1994.0,-7041012.0,0.0,0.0,0.0,1.0,0.0,0.0,0.0,0.08653830348307236,-9.983058689807226,-0.13153822129426843,1.0557673024934828,7040367.0,7040440.0,73.0,336.9155463285579,10.13935293862966,10.42288537584577,-3.024224629824926,164.0,-3.0260942760754217,0.0,0.0,0.0,0.0,0.0,0.0,0.0,0.0,0.0,0.0,0.0,0.0,0.0,-10.393230781365464,0.6127008161483141,0.6791666666666667
105,7071.756492,3.6494959,2,6,2,1,2,2,3,2,-32.69230769,n/a,n/a,7042011.0,7045661.0,0.0,0.0,0.0,7043777.0,7042671.0,7044662.0,7042671.0,7043460.0,7044669.0,7045662.0,3650.0,660.0,789.0,993.0,1991.0,-7044669.0,0.0,0.0,0.0,0.0,1.0,0.0,0.0,0.0,0.0,0.0,0.0,0.0,0.0,0.0,0.0,0.0,0.0,0.0,0.0,0.0,0.0,0.0,0.0,0.0,0.0,0.0,0.0,0.0,0.0,0.0,0.0,0.0,0.0,0.0,0.0,0.0
106,7075.414328,3.6578221,2,7,2,2,2,1,2,1,-32.69230769,n/a,n/a,7045668.0,7049328.0,0.0,0.0,0.0,7047268.0,7046335.0,7048328.0,7046335.0,7046929.0,7048335.0,7049328.0,3660.0,667.0,594.0,993.0,1993.0,-7048335.0,0.0,0.0,0.0,1.0,0.0,0.0,0.0,0.044999917811196055,9.017291222936139,0.048461449950519736,0.2976917639817697,7047249.0,7047308.0,59.0,382.70982434986655,8.975752169787933,9.284194445361864,-0.027770636593421206,320.0,0.028712733568126897,0.0,0.0,0.0,0.0,0.0,0.0,0.0,0.0,0.0,0.0,0.0,0.0,0.0,10.085877986734989,-0.1338082242162991,0.4583333333333333
107,7079.080478,3.5078491,2,8,2,1,2,2,5,1,-32.69230769,n/a,n/a,7049335.0,7052844.0,0.0,0.0,0.0,7051301.0,7049851.0,7051844.0,7049851.0,7051044.0,7051851.0,7052844.0,3509.0,516.0,1193.0,993.0,1993.0,-7051851.0,0.0,0.0,0.0,1.0,0.0,0.0,0.0,0.10038443204036315,-9.893058854184831,-0.16615354268749735,0.9830751275677012,7051280.0,7051364.0,84.0,357.1962750461364,10.059305903069848,10.270937513436106,-3.027097336118865,236.0,-3.019285979897122,1.0,-1.031536577518221,-1.131921009558588,0.3530762782109368,0.28384563542447894,7052400.0,7052429.0,29.0,33.80782746186077,0.12194226542381936,0.28510923702086544,2.5378433201923714,2.634494149197459,-10.465549085984401,0.7253814260146692,0.7125
108,7082.596719,3.5077856,2,9,2,1,2,1,3,1,-32.69230769,n/a,n/a,7052851.0,7056360.0,0.0,0.0,0.0,7054894.0,7053367.0,7055361.0,7053367.0,7054160.0,7055367.0,7056360.0,3509.0,516.0,793.0,993.0,1994.0,-7055367.0,0.0,0.0,0.0,1.0,0.0,0.0,0.0,-0.031153789253905263,-8.588061237660101,-0.02769225711458158,1.1249979452799406,7054875.0,7054944.0,69.0,342.89218609602966,8.634197112834856,8.69174453174235,-3.007689985571047,715.0,-3.0033565232106443,1.0,-2.2396112941419144,-1.7861505838906142,1.1942285880663985,0.8653830348307235,7055525.0,7055549.0,24.0,47.619662422509705,0.5601482068385923,0.5568227098022361,0.6274332704489681,-0.6708574666007662,-10.55594696675807,0.866232188347615,0.7541666666666667
109,7086.112828,3.5078716,2,10,2,2,2,1,4,2,-32.69230769,n/a,n/a,7056367.0,7059876.0,0.0,0.0,0.0,7058159.0,7056883.0,7058876.0,7056883.0,7057876.0,7058883.0,7059877.0,3509.0,516.0,993.0,994.0,1993.0,-7058883.0,0.0,0.0,0.0,1.0,0.0,0.0,0.0,0.02769225711458158,9.076137269304631,-0.12807668915494866,0.7996139241835893,7058139.0,7058200.0,61.0,395.5455816811505,9.095876374088613,9.355523071347841,-0.10216788994132169,263.0,-0.10787876955103366,0.0,0.0,0.0,0.0,0.0,0.0,0.0,0.0,0.0,0.0,0.0,0.0,0.0,9.715246675562936,0.4436799013487775,0.6291666666666667
110,7089.629036,3.5328372,2,11,2,2,1,1,1,2,-32.69230769,n/a,n/a,7059883.0,7063418.0,0.0,0.0,0.0,7061176.0,7060426.0,7062417.0,7060426.0,7060816.0,7062424.0,7063418.0,3535.0,543.0,390.0,994.0,1991.0,-7062424.0,0.0,0.0,0.0,1.0,0.0,0.0,0.0,0.062307578507810525,7.587678449395786,-0.24923031403124998,-0.26307644258854074,7061159.0,7061220.0,61.0,337.5960165162778,7.525383608805951,7.682494515479714,0.001839924326695821,343.0,0.0464257956067844,1.0,0.32192248895702763,-0.1765381391054684,-0.08307677134374868,-0.062307578507810525,7062695.0,7062727.0,32.0,53.70335292975333,0.49889313194261786,0.693525544542221,-3.099950074491203,2.9099303945727493,9.715246675562936,0.4436799013487775,0.36666666666666664
111,7093.17032,3.5077061,2,12,2,2,2,2,3,2,-32.69230769,n/a,n/a,7063424.0,7066933.0,0.0,0.0,0.0,7065224.0,7063941.0,7065934.0,7063941.0,7064734.0,7065940.0,7066933.0,3509.0,517.0,793.0,993.0,1993.0,-7065940.0,0.0,0.0,0.0,1.0,0.0,0.0,0.0,1.2669207629921801,8.70229179825776,-0.02769225711458158,0.5019221602018197,7065203.0,7065265.0,62.0,377.8500130039275,7.4542091373327946,7.881704969643634,-0.07110895362164454,469.0,-0.08354242816132106,1.0,4.50691484539841,4.4896071847017955,0.4396145816940092,0.5642297387096302,7066007.0,7066026.0,19.0,27.722288852194247,0.1258113368374131,0.14726775139294151,-1.7088023504524195,-1.981860874184773,9.715246675562936,0.4436799013487775,0.6291666666666667
112,7096.686376,3.5078157,2,13,2,2,2,2,2,1,-32.69230769,n/a,n/a,7066940.0,7070449.0,0.0,0.0,0.0,7068433.0,7067457.0,7069450.0,7067457.0,7068051.0,7069457.0,7070450.0,3509.0,517.0,594.0,993.0,1993.0,-7069457.0,0.0,0.0,0.0,0.0,1.0,0.0,0.0,0.0,0.0,0.0,0.0,0.0,0.0,0.0,0.0,0.0,0.0,0.0,0.0,0.0,0.0,0.0,0.0,0.0,0.0,0.0,0.0,0.0,0.0,0.0,0.0,0.0,0.0,0.0,0.0,0.0
113,7100.202621,3.5077665,2,14,2,2,2,1,3,2,-32.69230769,n/a,n/a,7070457.0,7073966.0,0.0,0.0,0.0,7072200.0,7070973.0,7072966.0,7070973.0,7071766.0,7072973.0,7073966.0,3509.0,516.0,793.0,993.0,1993.0,-7072973.0,0.0,0.0,0.0,1.0,0.0,0.0,0.0,0.43269151741536177,6.054219711675746,-0.14192281771223947,0.5123067566197868,7072185.0,7072236.0,51.0,280.6457328790639,5.659469548888401,5.993551687221662,-0.11585811990622635,419.0,-0.11518554024388754,0.0,0.0,0.0,0.0,0.0,0.0,0.0,0.0,0.0,0.0,0.0,0.0,0.0,9.769485404027144,0.35916944394900924,0.6041666666666666
114,7103.718723,3.6494907,2,15,2,2,2,2,5,2,-32.69230769,n/a,n/a,7073973.0,7077624.0,0.0,0.0,0.0,7076239.0,7074632.0,7076623.0,7074632.0,7075822.0,7076630.0,7077624.0,3651.0,659.0,1190.0,994.0,1991.0,-7076630.0,0.0,0.0,0.0,1.0,0.0,0.0,0.0,0.3426916817929658,8.006523838253853,-0.062307578507810525,1.246151570156242,7076221.0,7076282.0,61.0,333.59165947919007,7.7747275621803364,7.939131685618259,-0.16910122600137686,399.0,-0.1660088305965167,1.0,4.178069292162735,3.558455039223934,1.4884588199088447,1.3326898736393142,7077064.0,7077105.0,41.0,47.5742087896611,0.6388941908225716,0.6889231671307823,2.8952999307725023,-2.68918052684695,9.353655152468257,1.0070829506805588,0.7958333333333333
115,7107.376682,3.5743946,2,16,2,1,2,2,1,2,-32.69230769,n/a,n/a,7077631.0,7081206.0,0.0,0.0,0.0,7078973.0,7078214.0,7080207.0,7078214.0,7078606.0,7080213.0,7081206.0,3575.0,583.0,392.0,993.0,1993.0,-7080213.0,0.0,0.0,0.0,1.0,0.0,0.0,0.0,-0.07615370706510526,-8.501522934177029,-0.02769225711458158,0.4430761138333289,7078952.0,7079021.0,69.0,257.45270528085183,8.438511093329767,8.612483958660537,-3.085775590058684,346.0,-3.0844889417145795,0.0,0.0,0.0,0.0,0.0,0.0,0.0,0.0,0.0,0.0,0.0,0.0,0.0,-9.724286463640306,-0.4295948251154841,0.37083333333333335
116,7110.959383,3.507848,2,17,2,1,1,1,2,2,-32.69230769,n/a,n/a,7081213.0,7084722.0,0.0,0.0,0.0,7082746.0,7081730.0,7083723.0,7081730.0,7082323.0,7083729.0,7084722.0,3509.0,517.0,593.0,993.0,1993.0,-7083729.0,0.0,0.0,0.0,1.0,0.0,0.0,0.0,0.04153838567187631,-8.639984219749945,-0.13153822129426843,-0.22153805691666445,7082724.0,7082799.0,75.0,322.011909790463,8.681989099213506,8.975641368028471,3.1312261987875645,401.0,3.1026312914746894,1.0,0.04153838567187631,-8.639984219749945,-0.13153822129426843,-0.22153805691666445,7082724.0,7082799.0,75.0,322.011909790463,8.681989099213506,8.975641368028471,3.1312261987875645,3.1026312914746894,-10.004519894038681,0.0070425381166467,0.49583333333333335
117,7114.475559,3.5078476,2,18,2,1,1,2,3,2,-32.69230769,n/a,n/a,7084729.0,7088239.0,0.0,0.0,0.0,7086306.0,7085246.0,7087239.0,7085246.0,7086039.0,7087246.0,7088239.0,3510.0,517.0,793.0,993.0,1993.0,-7087246.0,0.0,0.0,0.0,1.0,0.0,0.0,0.0,0.1384612855729158,-7.625755302928335,-0.09692289990103947,-0.05884604636849078,7086287.0,7086328.0,41.0,355.12584981289285,7.764309955168774,7.7534611047695,-3.1366885466724708,248.0,-3.0826270993335214,1.0,-7.629216835067658,-7.4803709530767755,-0.0692306427864579,0.031153789253905263,7086330.0,7086352.0,22.0,87.20878182290674,0.17953309104928294,0.46693489659639165,-0.5933501461567194,-0.27015319971140667,-9.950281165574479,-0.07746791928312156,0.5208333333333334
118,7117.991913,3.5077008,2,19,2,2,2,2,4,1,-32.69230769,n/a,n/a,7088246.0,7091755.0,0.0,0.0,0.0,7090195.0,7088762.0,7090755.0,7088762.0,7089755.0,7090762.0,7091755.0,3509.0,516.0,993.0,993.0,1993.0,-7090762.0,0.0,0.0,0.0,1.0,0.0,0.0,0.0,0.048461449950519736,8.778445505322857,-0.048461449950519736,0.9623059347317631,7090174.0,7090240.0,66.0,374.8115465332209,8.788303153225469,8.983747645342419,-0.11526788880651348,419.0,-0.12206098213039361,0.0,0.0,0.0,0.0,0.0,0.0,0.0,0.0,0.0,0.0,0.0,0.0,0.0,9.55253049017033,0.6972112735480783,0.7041666666666667
119,7121.50801,3.6827213,2,20,2,2,1,2,5,2,-32.69230769,n/a,n/a,7091762.0,7095446.0,0.0,0.0,0.0,7094095.0,7092455.0,7094446.0,7092455.0,7093645.0,7094453.0,7095446.0,3684.0,693.0,1190.0,993.0,1991.0,-7094453.0,0.0,0.0,0.0,1.0,0.0,0.0,0.0,0.2976917639817697,8.3007540700963,-0.15230741413020657,-1.2149977809023367,7094077.0,7094141.0,64.0,414.5629348444047,8.073308930740945,8.43272710318274,0.1320131972208945,432.0,0.1408521229050636,1.0,-0.46384530666926704,-0.5192298208984342,-0.048461449950519736,-0.02769225711458158,7095162.0,7095183.0,21.0,21.00027863295545,0.05915068712582464,0.134688744867081,-2.7828219833192134,2.6894387913040334,10.682503999841206,-1.0634232556137382,0.8125
120,7125.199188,3.507751,2,21,2,1,2,2,3,2,-32.69230769,n/a,n/a,7095453.0,7098962.0,0.0,0.0,0.0,7097236.0,7095969.0,7097962.0,7095969.0,7096763.0,7097969.0,7098963.0,3509.0,516.0,794.0,994.0,1993.0,-7097969.0,0.0,0.0,0.0,1.0,0.0,0.0,0.0,0.006923064278647363,-9.564213300949156,0.006923064278647363,1.2426900380169184,7097218.0,7097286.0,68.0,354.36821836419483,9.65058398933289,9.920527063336191,-3.013189098167004,455.0,-3.0043834501622366,0.0,0.0,0.0,0.0,0.0,0.0,0.0,0.0,0.0,0.0,0.0,0.0,0.0,-10.27571353635969,0.4295948251154841,0.625
121,7128.715278,3.7078158,2,22,2,2,1,1,4,2,-32.69230769,n/a,n/a,7098969.0,7102678.0,0.0,0.0,0.0,7101202.0,7099686.0,7101678.0,7099686.0,7100679.0,7101685.0,7102679.0,3709.0,717.0,993.0,994.0,1992.0,-7101685.0,0.0,0.0,0.0,1.0,0.0,0.0,0.0,0.3011532961210934,10.038443204036394,-0.38423006746484206,-1.595766316227855,7101188.0,7101238.0,50.0,407.6255201113394,9.812371519304389,9.785364422675821,0.12378616639423311,509.0,0.12733861958387244,1.0,9.754597568611915,10.038443204036394,-1.6096124447851459,-1.630381637621084,7101249.0,7101271.0,22.0,38.429243235202875,0.2846044696075285,0.31238289885451015,0.07304056530312168,-0.22347660114063414,10.5469071786807,-0.8521471121143215,0.75
122,7132.431423,3.5079449,2,23,2,2,2,1,2,2,-32.69230769,n/a,n/a,7102685.0,7106195.0,0.0,0.0,0.0,7104195.0,7103202.0,7105194.0,7103202.0,7103795.0,7105202.0,7106195.0,3510.0,517.0,593.0,993.0,1992.0,-7105202.0,0.0,0.0,0.0,1.0,0.0,0.0,0.0,0.4430761138333289,9.093444930001246,-0.079615239204425,-0.044999917811196055,7104178.0,7104243.0,65.0,442.49956789992643,8.650438074236789,9.149455458515543,-0.004001579281507482,383.0,0.029892682761572625,0.0,0.0,0.0,0.0,0.0,0.0,0.0,0.0,0.0,0.0,0.0,0.0,0.0,10.022599470193414,-0.035212690583237435,0.4875
123,7135.947596,3.5078264,2,24,2,1,2,2,2,1,-32.69230769,n/a,n/a,7106201.0,7109710.0,0.0,0.0,0.0,7107668.0,7106718.0,7108711.0,7106718.0,7107311.0,7108718.0,7109711.0,3509.0,517.0,593.0,993.0,1993.0,-7108718.0,0.0,0.0,0.0,1.0,0.0,0.0,0.0,0.24576878189192627,-7.992677709696562,-0.07269217492578157,0.7338448135364551,7107647.0,7107699.0,52.0,327.1193658801844,8.27783199325309,8.573010405696195,-3.0440044707803495,336.0,-3.0291072808876454,0.0,0.0,0.0,0.0,0.0,0.0,0.0,0.0,0.0,0.0,0.0,0.0,0.0,-9.92316180134238,-0.11972314798300177,0.4625
124,7139.463911,3.5077306,2,25,2,1,1,2,4,2,-32.69230769,n/a,n/a,7109718.0,7113227.0,0.0,0.0,0.0,7111443.0,7110234.0,7112227.0,7110234.0,7111227.0,7112234.0,7113227.0,3509.0,516.0,993.0,993.0,1993.0,-7112234.0,0.0,0.0,0.0,1.0,0.0,0.0,0.0,0.0692306427864579,-9.47075193318744,-0.08999983562239604,-0.08307677134374868,7111424.0,7111497.0,73.0,350.7728600741441,9.539985087970765,9.8175477553791,-3.140866964312247,197.0,3.112676553339614,1.0,-3.658839471264301,-3.0496098147434707,0.2699995068671842,0.7373063456757749,7112055.0,7112090.0,35.0,60.77429238312839,0.7678127740418017,0.7773047501448089,-0.6543212455785901,-0.7255328736813224,-9.787564980181871,-0.33099929148242246,0.5958333333333333
125,7142.980119,3.5076965,2,26,2,1,2,1,3,1,-32.69230769,n/a,n/a,7113234.0,7116743.0,0.0,0.0,0.0,7114783.0,7113750.0,7115743.0,7113750.0,7114543.0,7115750.0,7116743.0,3509.0,516.0,793.0,993.0,1993.0,-7115750.0,0.0,0.0,0.0,1.0,0.0,0.0,0.0,0.28384563542447894,-8.688445669700466,0.10038443204036315,0.7546140063723894,7114760.0,7114822.0,62.0,326.07579673919145,8.996111804549304,9.401553152756223,-3.0688048049858683,217.0,-3.0697343113911155,0.0,0.0,0.0,0.0,0.0,0.0,0.0,0.0,0.0,0.0,0.0,0.0,0.0,-10.013559682116048,0.0211276143499401,0.5041666666666667
126,7146.496143,3.5078528,2,27,2,2,2,2,2,1,-32.69230769,n/a,n/a,7116750.0,7120259.0,0.0,0.0,0.0,7118193.0,7117266.0,7119260.0,7117266.0,7117859.0,7119266.0,7120259.0,3509.0,516.0,593.0,993.0,1994.0,-7119266.0,0.0,0.0,0.0,1.0,0.0,0.0,0.0,0.44999917811197626,9.238829279852808,0.10730749631901051,0.05192298208984342,7118176.0,7118253.0,77.0,332.4878251559931,8.789004608127257,9.13090241333608,0.006301610165900971,317.0,0.037160427364520236,0.0,0.0,0.0,0.0,0.0,0.0,0.0,0.0,0.0,0.0,0.0,0.0,0.0,10.094917774812355,-0.1478933004495925,0.45416666666666666
127,7150.012321,3.5078478,2,28,2,2,1,1,5,1,-32.69230769,n/a,n/a,7120266.0,7123775.0,0.0,0.0,0.0,7122342.0,7120782.0,7122775.0,7120782.0,7121975.0,7122782.0,7123776.0,3509.0,516.0,1193.0,994.0,1993.0,-7122782.0,0.0,0.0,0.0,1.0,0.0,0.0,0.0,0.15576894626953025,7.774601184919217,-0.27346103900650787,-0.9103829526419196,7122320.0,7122373.0,53.0,325.13024010460254,7.645408700962742,7.8792212410606774,0.08340442935566793,345.0,0.10784333378211827,1.0,7.442294099544223,4.75960669156898,-0.5642297387096302,-0.14538434985156315,7122760.0,7122835.0,75.0,78.82114667832873,2.715187505252003,2.757088075996588,-2.9867139986560542,3.0043120434635338,10.592106119067541,-0.9225724932807925,0.7708333333333334
128,7153.528509,3.5078273,2,29,2,2,1,2,5,2,-32.69230769,n/a,n/a,7123782.0,7127292.0,0.0,0.0,0.0,7125841.0,7124299.0,7126291.0,7124299.0,7125492.0,7126298.0,7127292.0,3510.0,517.0,1193.0,994.0,1992.0,-7126298.0,0.0,0.0,0.0,0.0,1.0,0.0,0.0,0.0,0.0,0.0,0.0,0.0,0.0,0.0,0.0,0.0,0.0,0.0,0.0,0.0,0.0,0.0,0.0,0.0,0.0,0.0,0.0,0.0,0.0,0.0,0.0,0.0,0.0,0.0,0.0,0.0
129,7157.044669,3.5911672,2,30,2,2,2,2,2,1,-32.69230769,n/a,n/a,7127298.0,7130891.0,0.0,0.0,0.0,7128874.0,7127898.0,7129891.0,7127898.0,7128491.0,7129898.0,7130891.0,3593.0,600.0,593.0,993.0,1993.0,-7129898.0,0.0,0.0,0.0,1.0,0.0,0.0,0.0,0.4465376459726526,8.26267721656375,-0.02769225711458158,0.09692289990103947,7128854.0,7128921.0,67.0,380.2130612399157,7.8171328966775295,8.04631638018528,-0.01594196199933435,363.0,-0.020651108568601403,1.0,5.455374651572878,3.8873005924596087,0.24576878189192627,0.7615370706510368,7129309.0,7129409.0,100.0,50.5490372140903,1.6507189895780163,1.8463307536355227,-2.823820858038591,-2.7450709327910863,10.040679046348147,-0.06338284304982424,0.4791666666666667
130,7160.644166,3.4995787,2,31,2,1,2,2,2,1,-32.69230769,n/a,n/a,7130898.0,7134399.0,0.0,0.0,0.0,7132574.0,7131408.0,7133399.0,7131408.0,7131997.0,7133405.0,7134399.0,3501.0,510.0,589.0,994.0,1991.0,-7133405.0,0.0,0.0,0.0,1.0,0.0,0.0,0.0,0.4084607924401,-7.753831992083283,-0.35653781035025656,0.2561533783098934,7132555.0,7132607.0,52.0,361.2568517340813,8.185255890498738,8.507981256061882,-3.0666695487705935,558.0,3.0519641495506677,1.0,-0.4292299852760381,-0.2976917639817697,0.3115378925390605,0.35653781035025656,7133513.0,7133543.0,30.0,37.464411793561744,0.1390226465877928,0.28680626844526264,-0.3296244074207357,2.7319465449649614,-10.167236079431287,0.26057391031594757,0.575
131,7164.152089,3.5077901,2,32,2,1,1,2,3,2,-32.69230769,n/a,n/a,7134406.0,7137915.0,0.0,0.0,0.0,7135966.0,7134922.0,7136915.0,7134923.0,7135716.0,7136922.0,7137915.0,3509.0,517.0,793.0,993.0,1993.0,-7136922.0,0.0,0.0,0.0,1.0,0.0,0.0,0.0,0.21461499263802103,-9.335752179753849,0.006923064278647363,-0.14192281771223947,7135940.0,7136012.0,72.0,346.0690692434096,9.551527010069432,9.623400513862105,3.1260085583043273,224.0,3.102735332338236,0.0,0.0,0.0,0.0,0.0,0.0,0.0,0.0,0.0,0.0,0.0,0.0,0.0,-9.977400529806582,-0.035212690583237435,0.5083333333333333
132,7167.668211,3.5078491,2,33,2,1,2,2,3,1,-32.69230769,n/a,n/a,7137922.0,7141431.0,0.0,0.0,0.0,7139438.0,7138438.0,7140431.0,7138438.0,7139231.0,7140438.0,7141431.0,3509.0,516.0,793.0,993.0,1993.0,-7140438.0,0.0,0.0,0.0,1.0,0.0,0.0,0.0,0.33230708537499865,-8.504984466316353,0.08307677134374868,0.5503836101523394,7139417.0,7139487.0,70.0,356.05251082763806,8.849638277985864,9.042725187596512,-3.088762891601471,186.0,-3.0718670344277896,0.0,0.0,0.0,0.0,0.0,0.0,0.0,0.0,0.0,0.0,0.0,0.0,0.0,-9.977400529806582,-0.035212690583237435,0.4875
133,7171.184388,3.5078271,2,34,2,2,1,2,4,2,-32.69230769,n/a,n/a,7141438.0,7144947.0,0.0,0.0,0.0,7143487.0,7141954.0,7143948.0,7141954.0,7142947.0,7143954.0,7144947.0,3509.0,516.0,993.0,993.0,1994.0,-7143954.0,0.0,0.0,0.0,1.0,0.0,0.0,0.0,0.28730716756379865,7.989216177557239,-0.19730733194140657,-0.7338448135364551,7143460.0,7143546.0,86.0,343.96795477494646,7.720574775712912,8.05533336771438,0.06955055875078646,513.0,0.08346240809608335,1.0,2.1807652477734236,2.1911498441913904,0.15923047840885393,0.1211536248763013,7144805.0,7144831.0,26.0,27.907764311239642,0.03946753878446844,0.19198245184342624,1.304544277644015,-0.44751997515717507,10.555946966758066,-0.866232188347615,0.7541666666666667
134,7174.700558,3.6495085,2,35,2,1,2,1,4,2,-32.69230769,n/a,n/a,7144954.0,7148605.0,0.0,0.0,0.0,7146820.0,7145614.0,7147606.0,7145614.0,7146604.0,7147612.0,7148605.0,3651.0,660.0,990.0,993.0,1992.0,-7147612.0,0.0,0.0,0.0,1.0,0.0,0.0,0.0,0.062307578507810525,-8.601907366217393,-0.006923064278647363,1.007305852542963,7146804.0,7146863.0,59.0,329.43510465829235,8.723375545287311,9.110390253665843,-3.0250634578371955,200.0,-3.018557230358747,1.0,0.062307578507810525,-8.601907366217393,-0.006923064278647363,1.007305852542963,7146804.0,7146863.0,59.0,329.43510465829235,8.723375545287311,9.110390253665843,-3.0250634578371955,-3.018557230358747,-10.212435019818125,0.33099929148242246,0.5958333333333333
135,7178.358405,3.5078116,2,36,2,2,1,2,4,2,-32.69230769,n/a,n/a,7148612.0,7152121.0,0.0,0.0,0.0,7150639.0,7149128.0,7151121.0,7149128.0,7150122.0,7151128.0,7152121.0,3509.0,516.0,994.0,993.0,1993.0,-7151128.0,0.0,0.0,0.0,1.0,0.0,0.0,0.0,0.2699995068671842,8.629599623331973,-0.08307677134374868,-1.0280750453789012,7150615.0,7150687.0,72.0,349.72563841185763,8.412843505327288,8.537941121969443,0.1125656158036854,493.0,0.11580604516165685,0.0,0.0,0.0,0.0,0.0,0.0,0.0,0.0,0.0,0.0,0.0,0.0,0.0,10.528827602525967,-0.8239769596477308,0.7416666666666667
136,7181.874777,3.5076668,2,37,2,2,1,1,2,2,-32.69230769,n/a,n/a,7152128.0,7155637.0,0.0,0.0,0.0,7153654.0,7152644.0,7154637.0,7152644.0,7153237.0,7154644.0,7155637.0,3509.0,516.0,593.0,993.0,1993.0,-7154644.0,0.0,0.0,0.0,1.0,0.0,0.0,0.0,0.5157682887591105,9.179983233484318,-0.08653830348307236,-0.3911531317434855,7153631.0,7153679.0,48.0,440.1918817786803,8.669568086242574,8.669897019657004,0.03514333550346371,394.0,0.04593090279391831,0.0,0.0,0.0,0.0,0.0,0.0,0.0,0.0,0.0,0.0,0.0,0.0,0.0,9.986440317883948,0.0211276143499401,0.49166666666666664
137,7185.390743,3.5078562,2,38,2,1,1,1,2,1,-32.69230769,n/a,n/a,7155644.0,7159153.0,0.0,0.0,0.0,7157187.0,7156161.0,7158154.0,7156161.0,7156753.0,7158160.0,7159153.0,3509.0,517.0,592.0,993.0,1993.0,-7158160.0,0.0,0.0,0.0,1.0,0.0,0.0,0.0,0.2526918461705697,-8.761137844626246,-0.0034615321393236813,0.2007688640807263,7157163.0,7157232.0,69.0,340.52526138930165,9.016143063939836,9.157299270478306,-3.1189390794623932,410.0,-3.0905394022411405,1.0,0.2526918461705697,-8.761137844626246,-0.0034615321393236813,0.2007688640807263,7157163.0,7157232.0,69.0,340.52526138930165,9.016143063939836,9.157299270478306,-3.1189390794623932,-3.0905394022411405,-9.995480105961315,-0.0070425381166467,0.5
138,7188.906928,3.5078314,2,39,2,2,2,1,1,2,-32.69230769,n/a,n/a,7159160.0,7162670.0,0.0,0.0,0.0,7160377.0,7159677.0,7161670.0,7159677.0,7160070.0,7161677.0,7162670.0,3510.0,517.0,393.0,993.0,1993.0,-7161677.0,0.0,0.0,0.0,1.0,0.0,0.0,0.0,0.12461515701562499,10.152673764634047,-0.10038443204036315,-0.19384579980208289,7160358.0,7160421.0,63.0,423.5083152112098,10.02849412748962,10.340031645108121,0.009319716355352928,288.0,0.027454586853995065,1.0,4.278453724203095,2.6792258758359235,0.5088452244804671,1.11115181672265,7160801.0,7160854.0,53.0,94.53250695671713,1.70888938847764,1.7712900442809623,-2.7813995091719623,-2.6971734436886927,10.338992052901261,-0.5281903587485458,0.3416666666666667
139,7192.423243,3.5827352,2,40,2,2,1,2,4,1,-32.69230769,n/a,n/a,7162676.0,7166261.0,0.0,0.0,0.0,7164520.0,7163269.0,7165261.0,7163269.0,7164259.0,7165268.0,7166261.0,3585.0,593.0,990.0,993.0,1992.0,-7165268.0,0.0,0.0,0.0,1.0,0.0,0.0,0.0,0.4049992603007802,9.591905558063738,-0.15230741413020657,-0.7269217492578078,7164503.0,7164565.0,62.0,372.3722182659494,9.204858986318628,9.464197298406075,0.062465725313774326,244.0,0.07211528219914774,1.0,4.960375555649706,4.659222259528613,0.16961507482682103,0.4119223245794236,7165214.0,7165244.0,30.0,37.24611441498962,0.38653086687516836,0.5449687394450243,-2.464054515864431,-2.6011731533192077,10.257633960204961,-0.40142467264889337,0.6166666666666667
140,7196.014302,3.5078303,2,41,2,2,2,1,3,1,-32.69230769,n/a,n/a,7166267.0,7169777.0,0.0,0.0,0.0,7167944.0,7166784.0,7168777.0,7166784.0,7167577.0,7168784.0,7169777.0,3510.0,517.0,793.0,993.0,1993.0,-7168784.0,0.0,0.0,0.0,1.0,0.0,0.0,0.0,0.4430761138333289,9.567674833088484,-0.09692289990103947,0.4292299852760381,7167928.0,7167976.0,48.0,424.02787535450454,9.139755940177666,9.13800690105538,-0.05759934249115182,351.0,-0.06671935059118113,1.0,3.894223656738256,2.9734561076783694,1.1630747988124932,1.2323054415989512,7168584.0,7168626.0,42.0,54.731628770678135,0.9233665368110202,1.0420649153557404,-3.0665458899933524,-3.025066094092027,9.841803708646076,0.24648883408265418,0.5708333333333333
141,7199.530459,3.5078675,2,42,2,1,2,1,3,1,-32.69230769,n/a,n/a,7169783.0,7173293.0,0.0,0.0,0.0,7171326.0,7170300.0,7172293.0,7170300.0,7171093.0,7172300.0,7173293.0,3510.0,517.0,793.0,993.0,1993.0,-7172300.0,0.0,0.0,0.0,1.0,0.0,0.0,0.0,0.29076869970312236,-8.494599869898382,0.024230724975261835,0.6542295743320262,7171306.0,7171359.0,53.0,358.6325677379604,8.807928215757258,9.465935433828221,-3.0700051865718025,213.0,-3.072056850751618,1.0,-6.490372761230427,-6.666910900335895,0.6023065922421829,0.5711528029882775,7171719.0,7171738.0,19.0,37.286305665786905,0.17926592856340118,0.29054196336291677,2.9669204545815586,2.8763855361379638,-10.013559682116048,0.0211276143499401,0.5041666666666667
142,7203.046655,3.5078157,2,43,2,1,2,1,5,1,-32.69230769,n/a,n/a,7173300.0,7176809.0,0.0,0.0,0.0,7175227.0,7173816.0,7175809.0,7173816.0,7175009.0,7175816.0,7176809.0,3509.0,516.0,1193.0,993.0,1993.0,-7175816.0,0.0,0.0,0.0,1.0,0.0,0.0,0.0,-0.010384596417967108,-9.827289743537696,-0.09346136776171972,1.2773053594101473,7175200.0,7175270.0,70.0,370.1039090453725,9.91214548359069,10.045483162931136,-3.0028563944650077,191.0,-2.992873092756633,1.0,-1.699612280407542,-1.460766562794263,1.6615354268749893,1.5438433341380118,7175862.0,7175881.0,19.0,62.98762679170953,0.2662681083325818,0.3718529855104881,0.45783372101896297,0.5052901880993946,-10.420350145597563,0.6549560448481943,0.6916666666666667
143,7206.562978,3.5660103,2,44,2,2,1,2,2,2,-32.69230769,n/a,n/a,7176816.0,7180384.0,0.0,0.0,0.0,7178309.0,7177392.0,7179383.0,7177392.0,7177982.0,7179390.0,7180384.0,3568.0,576.0,590.0,994.0,1991.0,-7179390.0,0.0,0.0,0.0,1.0,0.0,0.0,0.0,0.28384563542447894,8.293831005817651,-0.006923064278647363,-0.4880760316445289,7178288.0,7178340.0,52.0,297.7862255664372,8.024423581287172,7.986684868623889,0.05999705114838164,306.0,0.07939795311201306,1.0,2.648072086582014,1.7376891339400946,0.3773070031861947,0.3426916817929658,7178794.0,7178827.0,33.0,73.2713682603461,0.9110408009173773,0.9132805005892002,3.1035881476527294,3.061913793764269,9.896042437110275,0.1619783766828859,0.45
144,7210.137322,3.5078371,2,45,2,2,1,1,5,2,-32.69230769,n/a,n/a,7180390.0,7183900.0,0.0,0.0,0.0,7182367.0,7180907.0,7182900.0,7180907.0,7182100.0,7182907.0,7183900.0,3510.0,517.0,1193.0,993.0,1993.0,-7182907.0,0.0,0.0,0.0,1.0,0.0,0.0,0.0,0.4257684531367144,8.612291962635359,-0.08653830348307236,-0.6853833635859315,7182345.0,7182406.0,61.0,331.251725566074,8.208397077236432,8.499288007184528,0.07302004911585025,245.0,0.10035758089570393,0.0,0.0,0.0,0.0,0.0,0.0,0.0,0.0,0.0,0.0,0.0,0.0,0.0,10.483628662139134,-0.7535515784812599,0.7208333333333333
145,7213.653507,3.7161651,2,46,2,2,1,2,2,1,-32.69230769,n/a,n/a,7183906.0,7187624.0,0.0,0.0,0.0,7184890.0,7184633.0,7186625.0,7184633.0,7185225.0,7186631.0,7187625.0,3718.0,727.0,592.0,994.0,1992.0,-7186631.0,0.0,0.0,0.0,0.0,0.0,1.0,0.0,0.1107690284583342,8.349215520046823,0.1384612855729158,0.7892293277656184,7184867.0,7184919.0,52.0,349.00778466693407,8.264109125580687,8.242372504347584,-0.07882791510102248,-358.0,-0.09674346233893978,0.0,0.0,0.0,0.0,0.0,0.0,0.0,0.0,0.0,0.0,0.0,0.0,0.0,0.0,0.0,0.0
146,7217.378011,3.5078537,2,47,2,2,2,2,5,1,-32.69230769,n/a,n/a,7187631.0,7191141.0,0.0,0.0,0.0,7189697.0,7188148.0,7190140.0,7188148.0,7189340.0,7190147.0,7191141.0,3510.0,517.0,1192.0,994.0,1992.0,-7190147.0,0.0,0.0,0.0,1.0,0.0,0.0,0.0,0.373845471046871,7.379986521036413,0.09692289990103947,0.7234602171184842,7189674.0,7189741.0,67.0,285.5618323845469,7.034099901353021,7.4278067694900605,-0.08918962762303517,334.0,-0.09568073020512025,1.0,1.3846128557291577,2.1461499263801946,0.19384579980208289,0.6023065922421829,7190907.0,7191068.0,161.0,170.5553631744571,0.8641637165124191,4.869795073058908,-0.4923135895650848,-1.0368377874557198,9.42597345708719,0.8944023408142017,0.7625
147,7220.894201,3.5078488,2,48,2,1,1,1,3,2,-32.69230769,n/a,n/a,7191147.0,7194657.0,0.0,0.0,0.0,7192864.0,7191664.0,7193657.0,7191664.0,7192457.0,7193663.0,7194657.0,3510.0,517.0,793.0,994.0,1993.0,-7193663.0,0.0,0.0,0.0,1.0,0.0,0.0,0.0,0.373845471046871,-8.248831088006456,-0.08653830348307236,-0.6092296565208302,7192843.0,7192893.0,50.0,375.18965105718104,8.638504343495358,8.797323043943194,3.0810485133301397,386.0,3.070313222781676,1.0,-8.221138830891874,-8.539599787709582,-0.5953835279635394,-0.6715372350286407,7192900.0,7192925.0,25.0,44.5240295609263,0.32743971676784606,0.3595497282221735,2.9068700411046042,-2.7253233557328476,-9.80564455633661,-0.3028291390158317,0.5875
148,7224.41037,3.5078112,2,49,2,1,2,1,4,2,-32.69230769,n/a,n/a,7194663.0,7198172.0,0.0,0.0,0.0,7196363.0,7195180.0,7197173.0,7195180.0,7196173.0,7197180.0,7198172.0,3509.0,517.0,993.0,992.0,1993.0,-7197180.0,0.0,0.0,0.0,1.0,0.0,0.0,0.0,0.20769192835937367,-9.370367501147078,0.12461515701562499,0.9242290811992143,7196346.0,7196413.0,67.0,336.00891570403826,9.61137892619502,9.762846236042618,-3.0583018778113344,173.0,-3.047851112045545,1.0,-8.151908188105416,-5.849989315455692,1.2842284236887946,0.7996139241835893,7196733.0,7196787.0,54.0,87.87603839137788,2.3523778840551235,2.384535904195679,0.20749622643520266,-0.21504748477305655,-10.185315655586022,0.2887440627825383,0.5833333333333334
149,7227.926503,3.5078573,2,50,2,1,2,1,4,1,-32.69230769,n/a,n/a,7198179.0,7201689.0,0.0,0.0,0.0,7199929.0,7198696.0,7200689.0,7198696.0,7199689.0,7200696.0,7201689.0,3510.0,517.0,993.0,993.0,1993.0,-7200696.0,0.0,0.0,0.0,1.0,0.0,0.0,0.0,0.08653830348307236,-9.564213300949156,0.1626920105481776,0.8584599705520762,7199903.0,7199980.0,77.0,387.2865982795542,9.675799687086293,9.747473521968404,-3.069622481486843,214.0,-3.053408406767603,1.0,-4.261146063506484,-3.530762782109352,0.9553828704531196,0.9346136776171815,7200568.0,7200598.0,30.0,57.38271894511766,0.7306785183071265,0.7517344880297322,0.028428358150775924,-0.275137114204034,-10.230514595972858,0.35916944394900924,0.6041666666666666
150,7231.442693,3.5078507,2,51,2,1,2,2,4,2,-32.69230769,n/a,n/a,7201695.0,7205205.0,0.0,0.0,0.0,7203422.0,7202212.0,7204205.0,7202212.0,7203205.0,7204212.0,7205205.0,3510.0,517.0,993.0,993.0,1993.0,-7204212.0,0.0,0.0,0.0,1.0,0.0,0.0,0.0,-0.05884604636849078,-8.626138091192654,0.1869227355234355,0.8549984384127565,7203404.0,7203445.0,41.0,327.8562125599047,8.593300770140566,8.579121618402542,-3.063770342538286,199.0,-3.0498734060547417,1.0,-8.62267655905333,-8.508445998455672,0.8549984384127565,0.9726905311497341,7203447.0,7203474.0,27.0,70.57574616978114,0.16401234608182558,0.4788063528313945,-0.8003224283875197,-0.2782996590051108,-10.212435019818125,0.33099929148242246,0.5958333333333333
151,7234.958863,3.5078493,2,52,2,1,1,1,2,1,-32.69230769,n/a,n/a,7205212.0,7208721.0,0.0,0.0,0.0,7206838.0,7205728.0,7207722.0,7205728.0,7206321.0,7207728.0,7208721.0,3509.0,516.0,593.0,993.0,1994.0,-7207728.0,0.0,0.0,0.0,1.0,0.0,0.0,0.0,0.21807652477734077,-7.300371281831984,-0.1626920105481776,-0.22499958905598813,7206819.0,7206877.0,58.0,300.68487343715015,7.518705982750493,8.117658201435225,3.133305550485905,498.0,3.1108855851597315,0.0,0.0,0.0,0.0,0.0,0.0,0.0,0.0,0.0,0.0,0.0,0.0,0.0,-9.896042437110278,-0.1619783766828859,0.5458333333333333
152,7238.475064,3.5078293,2,53,2,2,2,2,4,1,-32.69230769,n/a,n/a,7208728.0,7212237.0,0.0,0.0,0.0,7210628.0,7209244.0,7211237.0,7209245.0,7210237.0,7211244.0,7212238.0,3509.0,517.0,992.0,994.0,1993.0,-7211244.0,0.0,0.0,0.0,1.0,0.0,0.0,0.0,-0.1903842676627592,8.35960011646479,-0.1349997534335921,0.41538385671874734,7210608.0,7210665.0,57.0,341.82082160643904,8.567680846480526,8.781006474451306,-0.06428377418878112,371.0,-0.06114013264922107,1.0,6.365757604214806,5.455374651572878,0.7511524742330696,1.0246135132395775,7211012.0,7211074.0,62.0,43.65207205299382,0.9505672308235503,1.0124789198352144,-2.8497870624745216,-2.6886479997985315,9.59772943055717,0.6267858923816074,0.6833333333333333
153,7241.991237,3.6661491,2,54,2,1,1,1,2,2,-32.69230769,n/a,n/a,7212244.0,7215912.0,0.0,0.0,0.0,7213777.0,7212920.0,7214912.0,7212920.0,7213510.0,7214919.0,7215912.0,3668.0,676.0,590.0,993.0,1992.0,-7214919.0,0.0,0.0,0.0,1.0,0.0,0.0,0.0,0.16961507482682103,-9.096906462140565,-0.1211536248763013,0.2526918461705697,7213759.0,7213814.0,55.0,355.63347241782446,9.274059619783705,9.778593641779029,-3.1012708518946144,249.0,-3.088823538546452,1.0,-0.9899981918463486,-0.0034615321393236813,0.1869227355234355,0.1765381391054684,7215301.0,7215333.0,32.0,136.87771361750595,0.9865913139637194,1.3056723031579218,0.010525927031723819,-3.061974084364892,-10.167236079431287,0.26057391031594757,0.42083333333333334
154,7245.665772,3.5077947,2,55,2,1,2,2,3,1,-32.69230769,n/a,n/a,7215918.0,7219428.0,0.0,0.0,0.0,7217512.0,7216435.0,7218428.0,7216435.0,7217228.0,7218435.0,7219428.0,3510.0,517.0,793.0,993.0,1993.0,-7218435.0,0.0,0.0,0.0,1.0,0.0,0.0,0.0,0.1384612855729158,-9.06575267288666,-0.05192298208984342,0.43269151741536177,7217496.0,7217543.0,47.0,359.2908989272737,9.216962938312856,9.132270351822365,-3.088989852929092,268.0,-3.072931756931971,1.0,-9.034598883632754,-8.851137680248643,0.4396145816940092,0.5261528851770815,7217545.0,7217568.0,23.0,107.27647452184834,0.2028469647711663,0.6525332390396875,-0.4407508477794254,-0.3016190462662408,-10.067798410580252,0.10563807174970836,0.5291666666666667
155,7249.181901,3.5078628,2,56,2,2,2,1,4,1,-32.69230769,n/a,n/a,7219435.0,7222944.0,0.0,0.0,0.0,7221184.0,7219951.0,7221944.0,7219951.0,7220944.0,7221951.0,7222944.0,3509.0,516.0,993.0,993.0,1993.0,-7221951.0,0.0,0.0,0.0,1.0,0.0,0.0,0.0,0.33923014965364207,8.937675983731715,0.006923064278647363,0.3530762782109368,7221169.0,7221216.0,47.0,355.7981535074467,8.605410670565945,8.610032905328838,-0.04023592184430441,225.0,-0.05188575586025146,0.0,0.0,0.0,0.0,0.0,0.0,0.0,0.0,0.0,0.0,0.0,0.0,0.0,9.760445615949777,0.3732545201823066,0.6083333333333333
156,7252.698082,3.5078433,2,57,2,1,1,2,1,1,-32.69230769,n/a,n/a,7222951.0,7226460.0,0.0,0.0,0.0,7224201.0,7223467.0,7225460.0,7223467.0,7223861.0,7225467.0,7226460.0,3509.0,516.0,394.0,993.0,1993.0,-7225467.0,0.0,0.0,0.0,1.0,0.0,0.0,0.0,0.2284611211953118,-9.602290154481707,0.062307578507810525,0.5296144173164012,7224184.0,7224225.0,41.0,386.2590964949506,9.84185177320928,9.826033196537058,-3.094093197322234,323.0,-3.073196681004461,1.0,-9.609213218760356,-9.50536725458067,0.5330759494557249,0.702691024282546,7224227.0,7224251.0,24.0,93.91255706876281,0.19888000876135564,0.6133850578544863,-1.0214218420233436,-0.2860514417173182,-10.302832900591795,0.47185005381536826,0.35833333333333334
157,7256.214262,3.507834,2,58,2,1,2,1,4,1,-32.69230769,n/a,n/a,7226467.0,7229976.0,0.0,0.0,0.0,7228217.0,7226983.0,7228976.0,7226983.0,7227977.0,7228983.0,7229976.0,3509.0,516.0,994.0,993.0,1993.0,-7228983.0,0.0,0.0,0.0,1.0,0.0,0.0,0.0,0.6334603814960881,-9.387675161843692,0.10038443204036315,0.8757676312486907,7228193.0,7228276.0,83.0,402.2971214181769,10.0510883332902,10.056665954483975,-3.064371727774533,216.0,-3.0575081336207357,1.0,-7.366140392479117,-6.985371857153599,1.11115181672265,1.1146133488619716,7228630.0,7228655.0,25.0,101.55466459443956,0.3807842692374412,0.7022390040117557,-0.009090658665056716,-0.16839015714752878,-10.230514595972858,0.35916944394900924,0.6041666666666666
158,7259.730439,3.5078458,2,59,2,1,2,1,3,2,-32.69230769,n/a,n/a,7229983.0,7233492.0,0.0,0.0,0.0,7231493.0,7230500.0,7232492.0,7230500.0,7231293.0,7232499.0,7233492.0,3509.0,517.0,793.0,993.0,1992.0,-7232499.0,0.0,0.0,0.0,1.0,0.0,0.0,0.0,0.373845471046871,-8.57767664124213,-0.08999983562239604,0.5503836101523394,7231474.0,7231546.0,72.0,362.88441120795636,8.974399093221857,9.332413906105204,-3.0701752654764674,181.0,-3.064365596215809,1.0,0.373845471046871,-8.57767664124213,-0.08999983562239604,0.5503836101523394,7231474.0,7231546.0,72.0,362.88441120795636,8.974399093221857,9.332413906105204,-3.0701752654764674,-3.064365596215809,-9.977400529806582,-0.035212690583237435,0.4875
159,7263.24662,3.6411672,2,60,2,1,1,1,2,2,-32.69230769,n/a,n/a,7233499.0,7237142.0,0.0,0.0,0.0,7235025.0,7234149.0,7236142.0,7234149.0,7234742.0,7236149.0,7237142.0,3643.0,650.0,593.0,993.0,1993.0,-7236149.0,0.0,0.0,0.0,1.0,0.0,0.0,0.0,0.22153805691666445,-9.567674833088478,-0.22153805691666445,0.20769192835937367,7235002.0,7235077.0,75.0,322.6681088090889,9.798618646835017,10.005509997930938,-3.097773479305018,260.0,-3.079972324152699,1.0,-2.461149351058579,-2.58230297593488,0.9207675490598907,0.7269217492578078,7235634.0,7235654.0,20.0,32.60502772089696,0.2285922022326587,0.24166353874577143,2.1293956421384572,2.234352053172423,-10.15819629135392,0.24648883408265418,0.425
160,7266.896132,3.5079041,2,61,2,1,1,2,3,1,-32.69230769,n/a,n/a,7237149.0,7240659.0,0.0,0.0,0.0,7238642.0,7237665.0,7239658.0,7237665.0,7238459.0,7239665.0,7240659.0,3510.0,516.0,794.0,994.0,1993.0,-7239665.0,0.0,0.0,0.0,1.0,0.0,0.0,0.0,0.5123067566197868,-8.162292784523384,0.13153822129426843,0.20769192835937367,7238622.0,7238703.0,81.0,355.4406237719028,8.674933808756183,8.765847462799918,-3.1328139485423443,163.0,-3.1088110390808374,0.0,0.0,0.0,0.0,0.0,0.0,0.0,0.0,0.0,0.0,0.0,0.0,0.0,-10.040679046348147,0.06338284304982424,0.4791666666666667
161,7270.412331,3.5328274,2,62,2,2,2,1,5,2,-32.69230769,n/a,n/a,7240665.0,7244199.0,0.0,0.0,0.0,7242758.0,7241208.0,7243199.0,7241208.0,7242398.0,7243206.0,7244199.0,3534.0,543.0,1190.0,993.0,1991.0,-7243206.0,0.0,0.0,0.0,0.0,1.0,0.0,0.0,0.0,0.0,0.0,0.0,0.0,0.0,0.0,0.0,0.0,0.0,0.0,0.0,0.0,0.0,0.0,0.0,0.0,0.0,0.0,0.0,0.0,0.0,0.0,0.0,0.0,0.0,0.0,0.0,0.0
162,7273.953488,3.7744857,2,63,2,1,2,2,4,1,-32.69230769,n/a,n/a,7244206.0,7247982.0,0.0,0.0,0.0,7246216.0,7244989.0,7246982.0,7244989.0,7245982.0,7246989.0,7247982.0,3776.0,783.0,993.0,993.0,1993.0,-7246989.0,0.0,0.0,0.0,1.0,0.0,0.0,0.0,0.6161527207994736,-9.038060415772078,0.031153789253905263,0.5746143351276013,7246200.0,7246270.0,70.0,395.8900129399313,9.669497435299936,9.877134860106054,-3.085359423799462,218.0,-3.074604870293652,1.0,5.219990466098923,-1.7169199411041565,-8.3457539879075,0.16615354268749735,7247582.0,7247674.0,92.0,1455.2376306450797,10.980587225051408,11.031056248433062,-2.25459615172995,2.2601909277107444,-10.230514595972858,0.35916944394900924,0.6041666666666666
163,7277.736305,3.6744926,2,64,2,2,1,2,4,1,-32.69230769,n/a,n/a,7247989.0,7251665.0,0.0,0.0,0.0,7250172.0,7248672.0,7250665.0,7248672.0,7249665.0,7250672.0,7251665.0,3676.0,683.0,993.0,993.0,1993.0,-7250672.0,0.0,0.0,0.0,1.0,0.0,0.0,0.0,0.4603837745299434,9.681905393686137,-0.19384579980208289,-0.9726905311497341,7250154.0,7250215.0,61.0,402.9894282252589,9.254353574837793,9.286785613632432,0.08425948694370372,489.0,0.11543202641166667,0.0,0.0,0.0,0.0,0.0,0.0,0.0,0.0,0.0,0.0,0.0,0.0,0.0,10.528827602525967,-0.8239769596477308,0.7416666666666667
164,7281.419158,3.5078092,2,65,2,2,2,2,1,1,-32.69230769,n/a,n/a,7251671.0,7255180.0,0.0,0.0,0.0,7253032.0,7252188.0,7254181.0,7252188.0,7252581.0,7254188.0,7255180.0,3509.0,517.0,393.0,992.0,1993.0,-7254188.0,0.0,0.0,0.0,1.0,0.0,0.0,0.0,0.22499958905598813,9.761520632890562,-0.1107690284583342,-0.6784602993072881,7253013.0,7253056.0,43.0,409.933038698235,9.553402901505713,9.555719818258321,0.05945796519911492,432.0,0.06888141266170537,1.0,-0.5088452244804671,0.20423039622005,1.2253823773203039,0.6265373172174447,7253515.0,7253559.0,44.0,67.08191680516111,0.9311778814206364,1.2189361637915463,0.6985459684086208,0.523372929511068,10.185315655586022,-0.2887440627825383,0.4125
165,7284.935297,3.5078539,2,66,2,1,2,2,3,1,-32.69230769,n/a,n/a,7255188.0,7258697.0,0.0,0.0,0.0,7256731.0,7255704.0,7257697.0,7255704.0,7256498.0,7257704.0,7258697.0,3509.0,516.0,794.0,993.0,1993.0,-7257704.0,0.0,0.0,0.0,1.0,0.0,0.0,0.0,0.1488458819908829,-9.193829362041608,0.01384612855729079,0.6888448957252552,7256710.0,7256780.0,70.0,305.4800751002148,9.367027492814135,9.56315335941096,-3.069468991413277,212.0,-3.0622389407892405,0.0,0.0,0.0,0.0,0.0,0.0,0.0,0.0,0.0,0.0,0.0,0.0,0.0,-10.013559682116048,0.0211276143499401,0.5041666666666667
166,7288.45158,3.5077659,2,67,2,1,1,2,1,2,-32.69230769,n/a,n/a,7258704.0,7262213.0,0.0,0.0,0.0,7259963.0,7259220.0,7261214.0,7259220.0,7259613.0,7261220.0,7262213.0,3509.0,516.0,393.0,993.0,1994.0,-7261220.0,0.0,0.0,0.0,1.0,0.0,0.0,0.0,0.2526918461705697,-8.435753823529895,-0.07269217492578157,0.6784602993072881,7259942.0,7260010.0,68.0,317.0080213075635,8.720855359130962,9.262362109857207,-3.0553529050657393,329.0,-3.0476507615939386,0.0,0.0,0.0,0.0,0.0,0.0,0.0,0.0,0.0,0.0,0.0,0.0,0.0,-10.293793112514427,0.4577649775820709,0.3625
