onset	duration	run_number	trial_number	task	ext_mot_pos	ext_mot_ver_dir	fix_off_prct	exp_mot_ori	direction_report	response_duration
4593.660657	3.5245012	2	1	2	1	2	1	41.63461538	n/a	n/a
4597.193478	3.50783	2	2	2	2	2	5	41.63461538	n/a	n/a
4600.709628	3.5078629	2	3	2	2	2	4	41.63461538	n/a	n/a
4604.22586	3.507799	2	4	2	2	2	4	41.63461538	n/a	n/a
4607.741968	3.516185	2	5	2	1	1	5	41.63461538	n/a	n/a
4611.266476	3.5078088	2	6	2	2	2	1	41.63461538	n/a	n/a
4614.782861	3.507612	2	7	2	2	2	3	41.63461538	n/a	n/a
4618.29891	3.5077414	2	8	2	1	1	2	41.63461538	n/a	n/a
4621.814969	3.5078834	2	9	2	1	1	1	41.63461538	n/a	n/a
4625.331249	3.5077451	2	10	2	1	1	5	41.63461538	n/a	n/a
4628.847309	3.5078183	2	11	2	2	2	5	41.63461538	n/a	n/a
4632.363596	3.5076958	2	12	2	1	2	5	41.63461538	n/a	n/a
4635.879626	3.6828021	2	13	2	1	1	2	41.63461538	n/a	n/a
4639.570762	3.5078298	2	14	2	2	2	2	41.63461538	n/a	n/a
4643.087018	3.5077363	2	15	2	1	1	5	41.63461538	n/a	n/a
4646.603088	3.5078398	2	16	2	1	1	2	41.63461538	n/a	n/a
4650.11925	3.5078446	2	17	2	2	1	3	41.63461538	n/a	n/a
4653.635416	3.507834	2	18	2	1	1	4	41.63461538	n/a	n/a
4657.151576	3.5078474	2	19	2	2	2	2	41.63461538	n/a	n/a
4660.667754	3.5078179	2	20	2	1	2	1	41.63461538	n/a	n/a
4664.184015	3.5077069	2	21	2	2	1	5	41.63461538	n/a	n/a
4667.700055	3.5078471	2	22	2	2	1	5	41.63461538	n/a	n/a
4671.216232	3.624493	2	23	2	2	2	3	41.63461538	n/a	n/a
4674.84903	3.508075869	2	24	2	1	2	3	41.63461538	n/a	n/a
4678.365351	3.5243533	2	25	2	1	1	3	41.63461538	n/a	n/a
4681.898151	3.5077167	2	26	2	1	1	4	41.63461538	n/a	n/a
4685.414196	3.5078552	2	27	2	1	1	3	41.63461538	n/a	n/a
4688.93054	3.5076456	2	28	2	2	2	1	41.63461538	n/a	n/a
4692.446524	3.5078313	2	29	2	1	1	1	41.63461538	n/a	n/a
4695.96283	3.5077317	2	30	2	1	2	2	41.63461538	n/a	n/a
4699.478863	3.5078246	2	31	2	1	2	2	41.63461538	n/a	n/a
4702.994979	3.5078337	2	32	2	1	1	1	41.63461538	n/a	n/a
4706.511134	3.5078433	2	33	2	2	2	1	41.63461538	n/a	n/a
4710.027295	3.5078245	2	34	2	2	2	1	41.63461538	n/a	n/a
4713.54349	3.5078235	2	35	2	1	1	1	41.63461538	n/a	n/a
4717.059645	3.5077934	2	36	2	2	1	1	41.63461538	n/a	n/a
4720.575786	3.5078251	2	37	2	1	2	4	41.63461538	n/a	n/a
4724.092042	3.5077862	2	38	2	2	1	5	41.63461538	n/a	n/a
4727.60816	3.6661464	2	39	2	1	2	4	41.63461538	n/a	n/a
4731.282639	3.5078443	2	40	2	2	2	4	41.63461538	n/a	n/a
4734.798815	3.5077847	2	41	2	2	1	1	41.63461538	n/a	n/a
4738.314976	3.5078324	2	42	2	2	1	2	41.63461538	n/a	n/a
4741.831134	3.5078394	2	43	2	2	2	3	41.63461538	n/a	n/a
4745.347266	3.5078648	2	44	2	2	2	1	41.63461538	n/a	n/a
4748.863425	3.5078725	2	45	2	2	2	3	41.63461538	n/a	n/a
4752.379649	3.507785	2	46	2	2	2	4	41.63461538	n/a	n/a
4755.895765	3.5078487	2	47	2	1	2	1	41.63461538	n/a	n/a
4759.411945	3.5078199	2	48	2	2	1	5	41.63461538	n/a	n/a
4762.928235	3.5076883	2	49	2	2	2	3	41.63461538	n/a	n/a
4766.444239	3.5078613	2	50	2	2	1	2	41.63461538	n/a	n/a
4769.960423	3.5079742	2	51	2	2	1	1	41.63461538	n/a	n/a
4773.476586	3.5078435	2	52	2	2	1	5	41.63461538	n/a	n/a
4776.992763	3.5078217	2	53	2	2	1	2	41.63461538	n/a	n/a
4780.508926	3.5078073	2	54	2	2	1	2	41.63461538	n/a	n/a
4784.025063	3.5078575	2	55	2	2	2	5	41.63461538	n/a	n/a
4787.541254	3.5078456	2	56	2	1	2	1	41.63461538	n/a	n/a
4795.248471	3.54124	2	57	2	1	2	2	41.63461538	n/a	n/a
4798.797956	3.507833	2	58	2	1	1	1	41.63461538	n/a	n/a
4802.314134	3.5078177	2	59	2	1	2	1	41.63461538	n/a	n/a
4805.830284	3.5078135	2	60	2	2	2	5	41.63461538	n/a	n/a
4809.346415	3.6911731	2	61	2	1	2	1	41.63461538	n/a	n/a
4813.045874	3.5078297	2	62	2	1	1	5	41.63461538	n/a	n/a
4816.562045	3.5578215	2	63	2	2	2	2	41.63461538	n/a	n/a
4820.128244	3.5077925	2	64	2	2	2	3	41.63461538	n/a	n/a
4823.644364	3.5078517	2	65	2	2	2	4	41.63461538	n/a	n/a
4827.160536	3.5078735	2	66	2	1	2	3	41.63461538	n/a	n/a
4830.676756	3.5077717	2	67	2	2	1	1	41.63461538	n/a	n/a
4834.192861	3.5078541	2	68	2	2	1	5	41.63461538	n/a	n/a
4837.709046	3.5078414	2	69	2	2	2	3	41.63461538	n/a	n/a
4841.22523	3.5077902	2	70	2	1	1	3	41.63461538	n/a	n/a
4844.741353	3.5078806	2	71	2	1	2	3	41.63461538	n/a	n/a
4848.257566	3.5078302	2	72	2	2	2	3	41.63461538	n/a	n/a
4851.773731	3.5078276	2	73	2	1	2	1	41.63461538	n/a	n/a
4855.289878	3.5077955	2	74	2	2	1	4	41.63461538	n/a	n/a
4858.806008	3.5078556	2	75	2	1	2	5	41.63461538	n/a	n/a
4862.322192	3.5077936	2	76	2	1	2	2	41.63461538	n/a	n/a
4865.838331	3.5080034	2	77	2	1	1	3	41.63461538	n/a	n/a
4869.35452	3.5078333	2	78	2	2	2	1	41.63461538	n/a	n/a
4872.870675	3.5078587	2	79	2	1	2	1	41.63461538	n/a	n/a
4876.386851	3.507815	2	80	2	2	1	3	41.63461538	n/a	n/a
4879.903042	3.5078092	2	81	2	2	1	2	41.63461538	n/a	n/a
4883.419181	3.5078431	2	82	2	2	2	1	41.63461538	n/a	n/a
4886.935359	3.5077897	2	83	2	1	1	3	41.63461538	n/a	n/a
4890.451495	3.5078297	2	84	2	1	2	5	41.63461538	n/a	n/a
4893.967658	3.5744869	2	85	2	1	1	1	41.63461538	n/a	n/a
4897.550466	3.4995403	2	86	2	2	2	5	41.63461538	n/a	n/a
4901.058309	3.5078649	2	87	2	2	2	2	41.63461538	n/a	n/a
4904.574503	3.507803	2	88	2	1	1	5	41.63461538	n/a	n/a
4908.090639	3.7078313	2	89	2	2	2	5	41.63461538	n/a	n/a
4911.806929	3.5076946	2	90	2	1	2	2	41.63461538	n/a	n/a
4915.322942	3.6994931	2	91	2	2	2	1	41.63461538	n/a	n/a
4919.030773	3.5078209	2	92	2	2	2	5	41.63461538	n/a	n/a
4922.546922	3.5078444	2	93	2	1	2	3	41.63461538	n/a	n/a
4926.063227	3.5077185	2	94	2	1	1	4	41.63461538	n/a	n/a
4929.579278	3.6744608	2	95	2	1	2	1	41.63461538	n/a	n/a
4933.262069	3.5078339	2	96	2	1	1	4	41.63461538	n/a	n/a
4936.778233	3.507846	2	97	2	1	1	1	41.63461538	n/a	n/a
4940.294432	3.5078152	2	98	2	1	2	5	41.63461538	n/a	n/a
4943.810572	3.5078201	2	99	2	2	1	1	41.63461538	n/a	n/a
4947.326727	3.507835	2	100	2	1	2	3	41.63461538	n/a	n/a
