,onset,duration,run_number,trial_number,task,ext_mot_pos,ext_mot_ver_dir,fix_off_prct,exp_mot_ori,direction_report,response_duration,trial_onset,trial_offset,button_press_onset,button_left,button_right,fix_break,motion_onset,motion_offset,fixation_onset,fixation_offset,response_onset,response_offset,trial_duration,fix_check_duration,fixation_duration,response_duration,motion_duration,reaction_time,miss_time_trial,blink_trial,no_saccade_trial,main_sac_trial,innacurate_sac_trial,early_sac_trial,late_sac_trial,sac_x_onset_trial,sac_x_offset_trial,sac_y_onset_trial,sac_y_offset_trial,sac_t_onset_trial,sac_t_offset_trial,sac_dur_trial,sac_vpeak_trial,sac_dist_trial,sac_amp_trial,sac_dist_ang_trial,sac_lat_trial,sac_amp_ang_trial,cor_sac_trial,cor_sac_x_onset_trial,cor_sac_x_offset_trial,cor_sac_y_onset_trial,cor_sac_y_offset_trial,cor_sac_t_onset_trial,cor_sac_t_offset_trial,cor_sac_dur_trial,cor_sac_vpeak_trial,cor_sac_dist_trial,cor_sac_amp_trial,cor_sac_dist_ang_trial,cor_sac_amp_ang_trial
0,4212.174038,3.524290405,1,1,2,2,1,2,41.63461538,n/a,n/a,4174481.0,4178005.0,0.0,0.0,0.0,4175937.0,4175003.0,4177004.0,4175004.0,4175603.0,4177012.0,4178005.0,3524.0,523.0,599.0,993.0,2001.0,-4177012.0,0.0,0.0,0.0,1.0,0.0,0.0,0.0,0.11423056059765394,9.13844484781244,0.30461482826041314,-0.15230741413020657,4175917.0,4175985.0,68.0,396.5133483914021,9.035774534436035,10.539069909959029,0.05058970876938437,314.0,0.060800257454126316,1.0,0.11423056059765394,9.13844484781244,0.30461482826041314,-0.15230741413020657,4175917.0,4175985.0,68.0,396.5133483914021,9.035774534436035,10.539069909959029,0.05058970876938437,0.060800257454126316
1,4215.706662,3.5077849,1,2,2,1,2,2,41.63461538,n/a,n/a,4178011.0,4181520.0,0.0,0.0,0.0,4179421.0,4178528.0,4180521.0,4178528.0,4179121.0,4180527.0,4181521.0,3509.0,517.0,593.0,994.0,1993.0,-4180527.0,0.0,0.0,0.0,1.0,0.0,0.0,0.0,0.16961507482682103,-8.903060662338486,0.14538434985156315,-0.3530762782109368,4179402.0,4179480.0,78.0,541.5752360466881,9.08635834806643,11.040441581378854,3.0867069710559156,281.0,3.0779025998281093,0.0,0.0,0.0,0.0,0.0,0.0,0.0,0.0,0.0,0.0,0.0,0.0,0.0
2,4219.222919,3.5077185,1,3,2,2,1,3,41.63461538,n/a,n/a,4181528.0,4185037.0,0.0,0.0,0.0,4183154.0,4182044.0,4184037.0,4182044.0,4182838.0,4184044.0,4185037.0,3509.0,516.0,794.0,993.0,1993.0,-4184044.0,0.0,0.0,0.0,1.0,0.0,0.0,0.0,0.24923031403124998,9.481136529605411,-0.05884604636849078,-0.5088452244804671,4183123.0,4183199.0,76.0,370.4598655660285,9.242867067823614,10.619380911044056,0.04870535729040523,285.0,0.0714468084756028,0.0,0.0,0.0,0.0,0.0,0.0,0.0,0.0,0.0,0.0,0.0,0.0,0.0
3,4222.739109,3.5077229,1,4,2,1,2,4,41.63461538,n/a,n/a,4185044.0,4188553.0,0.0,0.0,0.0,4186793.0,4185560.0,4187553.0,4185560.0,4186553.0,4187560.0,4188553.0,3509.0,516.0,993.0,993.0,1993.0,-4187560.0,0.0,0.0,0.0,1.0,0.0,0.0,0.0,0.15923047840885393,-9.958827964831968,0.28038410328515523,0.2699995068671842,4186773.0,4186842.0,69.0,560.5550847892571,10.118063772317294,11.24873855822677,3.1405663111516744,220.0,3.1012695884514354,1.0,0.15923047840885393,-9.958827964831968,0.28038410328515523,0.2699995068671842,4186773.0,4186842.0,69.0,560.5550847892571,10.118063772317294,11.24873855822677,3.1405663111516744,3.1012695884514354
4,4226.255158,3.5161457,1,5,2,1,1,2,41.63461538,n/a,n/a,4188560.0,4192078.0,0.0,0.0,0.0,4190053.0,4189085.0,4191077.0,4189087.0,4189677.0,4191085.0,4192079.0,3518.0,527.0,590.0,994.0,1992.0,-4191085.0,0.0,0.0,0.0,1.0,0.0,0.0,0.0,0.062307578507810525,-10.945364624538994,-0.020769192835938154,0.33230708537499865,4190033.0,4190108.0,75.0,575.0546776480367,11.013333291422928,11.771336905549717,-3.109528175238368,356.0,-3.079210530071184,1.0,0.062307578507810525,-10.945364624538994,-0.020769192835938154,0.33230708537499865,4190033.0,4190108.0,75.0,575.0546776480367,11.013333291422928,11.771336905549717,-3.109528175238368,-3.079210530071184
5,4229.787967,3.50783,1,6,2,2,2,2,41.63461538,n/a,n/a,4192094.0,4195601.0,0.0,0.0,0.0,4193627.0,4192611.0,4194602.0,4192611.0,4193201.0,4194609.0,4195602.0,3507.0,517.0,590.0,993.0,1991.0,-4194609.0,0.0,0.0,0.0,1.0,0.0,0.0,0.0,0.024230724975261835,9.52267491527728,0.11423056059765394,0.1765381391054684,4193609.0,4193673.0,64.0,412.1359888786223,9.498648549694934,11.01309230285752,-0.00655967267617579,408.0,-0.0188597566874758,1.0,9.657674668710875,9.761520632890562,0.1384612855729158,0.1869227355234355,4193696.0,4193715.0,19.0,19.615348789496924,0.11459710470913098,0.15851398475854814,-0.4366271598135351,-0.5516549825285323
6,4233.304126,3.5078468,1,7,2,2,2,3,41.63461538,n/a,n/a,4195608.0,4199118.0,0.0,0.0,0.0,4197208.0,4196125.0,4198118.0,4196125.0,4196919.0,4198125.0,4199118.0,3510.0,517.0,794.0,993.0,1993.0,-4198125.0,0.0,0.0,0.0,1.0,0.0,0.0,0.0,0.010384596417967108,9.858443532791602,0.0692306427864579,0.39807619602213284,4197188.0,4197270.0,82.0,396.04341755443926,9.853547798238536,10.675455471808641,-0.0333795130529712,269.0,-0.057099280884762696,1.0,0.29076869970312236,0.3011532961210934,0.4603837745299434,0.5573066744309868,4198061.0,4198081.0,20.0,26.54468321898489,0.09747763009014845,0.15672753344804968,-1.4640606541457395,-2.1036402144142663
7,4236.820301,3.5078277,1,8,2,2,2,1,41.63461538,n/a,n/a,4199125.0,4202634.0,0.0,0.0,0.0,4200501.0,4199641.0,4201635.0,4199641.0,4200034.0,4201641.0,4202634.0,3509.0,516.0,393.0,993.0,1994.0,-4201641.0,0.0,0.0,0.0,1.0,0.0,0.0,0.0,-0.15230741413020657,10.010750946921812,0.14538434985156315,0.21461499263802103,4200478.0,4200539.0,61.0,435.030192921703,10.163294157508675,11.430216564651719,-0.006811883737730248,444.0,-0.025441343799646746,1.0,8.432292291390567,-33.26532385889301,0.5261528851770815,18.726888873736858,4201287.0,4201307.0,20.0,18320.086239165037,45.49679091036691,54.960258717495115,-2.7300273730252833,-2.636133612333277
8,4240.336452,3.507829,1,9,2,2,2,1,41.63461538,n/a,n/a,4202641.0,4206150.0,0.0,0.0,0.0,4203857.0,4203157.0,4205151.0,4203157.0,4203551.0,4205157.0,4206150.0,3509.0,516.0,394.0,993.0,1994.0,-4205157.0,0.0,0.0,0.0,1.0,0.0,0.0,0.0,0.1765381391054684,8.9203683230351,-0.0,-0.2319226533346355,4203841.0,4203893.0,52.0,418.94709278978553,8.746905418633991,10.312429443675319,0.026517931293950733,290.0,0.04600246818761261,0.0,0.0,0.0,0.0,0.0,0.0,0.0,0.0,0.0,0.0,0.0,0.0,0.0
9,4243.852605,3.5078227,1,10,2,2,1,2,41.63461538,n/a,n/a,4206157.0,4209667.0,0.0,0.0,0.0,4207567.0,4206674.0,4208666.0,4206674.0,4207267.0,4208673.0,4209667.0,3510.0,517.0,593.0,994.0,1992.0,-4208673.0,0.0,0.0,0.0,1.0,0.0,0.0,0.0,-0.0553845142291671,9.841135872094988,-0.006923064278647363,-0.30461482826041314,4207546.0,4207585.0,39.0,392.7686659436774,9.900996724737977,9.864298322558552,0.03007138003405408,279.0,0.050904684758684475,1.0,9.86190506493093,8.754214780347603,-0.31499942467838415,-0.16961507482682103,4207587.0,4207619.0,32.0,185.3392865789438,1.117190393685003,1.7182489063495603,-3.0110886204794034,2.9366903204862935
10,4247.36877,3.5078424,1,11,2,2,1,3,41.63461538,n/a,n/a,4209673.0,4213183.0,0.0,0.0,0.0,4211256.0,4210190.0,4212182.0,4210190.0,4210983.0,4212190.0,4213183.0,3510.0,517.0,793.0,993.0,1992.0,-4212190.0,0.0,0.0,0.0,1.0,0.0,0.0,0.0,-0.0553845142291671,8.76806090890489,-0.062307578507810525,-0.17999967124479208,4211243.0,4211321.0,78.0,381.3611674584461,8.82423030998841,9.859282748456023,0.013337773173492672,260.0,0.03968400405645108,0.0,0.0,0.0,0.0,0.0,0.0,0.0,0.0,0.0,0.0,0.0,0.0,0.0
11,4250.884933,3.5078291,1,12,2,1,2,5,41.63461538,n/a,n/a,4213189.0,4216698.0,0.0,0.0,0.0,4214965.0,4213706.0,4215699.0,4213706.0,4214899.0,4215706.0,4216698.0,3509.0,517.0,1193.0,992.0,1993.0,-4215706.0,0.0,0.0,0.0,1.0,0.0,0.0,0.0,-0.0034615321393236813,-10.318827307321548,0.16615354268749735,0.28384563542447894,4214946.0,4215014.0,68.0,633.4606442109824,10.316037151178431,11.600859019827748,-3.1301837526480822,47.0,-3.0905465081515775,0.0,0.0,0.0,0.0,0.0,0.0,0.0,0.0,0.0,0.0,0.0,0.0,0.0
12,4254.401091,3.5078417,1,13,2,2,1,1,41.63461538,n/a,n/a,4216705.0,4220215.0,0.0,0.0,0.0,4218005.0,4217222.0,4219215.0,4217222.0,4217616.0,4219222.0,4220215.0,3510.0,517.0,394.0,993.0,1993.0,-4219222.0,0.0,0.0,0.0,1.0,0.0,0.0,0.0,0.1765381391054684,8.8303684874127,0.13153822129426843,-0.10730749631901051,4217992.0,4218071.0,79.0,384.3400653787433,8.657125791745518,9.706873085935378,0.027592995009394283,376.0,0.07173938630115333,0.0,0.0,0.0,0.0,0.0,0.0,0.0,0.0,0.0,0.0,0.0,0.0,0.0
13,4257.917268,3.5078133,1,14,2,2,2,3,41.63461538,n/a,n/a,4220221.0,4223731.0,0.0,0.0,0.0,4221815.0,4220738.0,4222731.0,4220738.0,4221531.0,4222738.0,4223731.0,3510.0,517.0,793.0,993.0,1993.0,-4222738.0,0.0,0.0,0.0,1.0,0.0,0.0,0.0,-0.10038443204036315,9.398059758261658,0.079615239204425,0.4430761138333289,4221796.0,4221894.0,98.0,396.88922789018477,9.505395617420046,10.365092561024422,-0.038246646063668246,265.0,-0.03975177539584795,1.0,-0.10038443204036315,9.398059758261658,0.079615239204425,0.4430761138333289,4221796.0,4221894.0,98.0,396.88922789018477,9.505395617420046,10.365092561024422,-0.038246646063668246,-0.03975177539584795
14,4261.433536,3.5076921,1,15,2,2,1,4,41.63461538,n/a,n/a,4223738.0,4227247.0,0.0,0.0,0.0,4225647.0,4224254.0,4226248.0,4224254.0,4225247.0,4226254.0,4227247.0,3509.0,516.0,993.0,993.0,1994.0,-4226254.0,0.0,0.0,0.0,1.0,0.0,0.0,0.0,0.13153822129426843,10.696134310507743,-0.10384596417968683,-0.7373063456757749,4225629.0,4225702.0,73.0,393.68957651505235,10.583570408097156,11.382265647868998,0.059888977588237025,382.0,0.07884778687204827,0.0,0.0,0.0,0.0,0.0,0.0,0.0,0.0,0.0,0.0,0.0,0.0,0.0
15,4264.949555,3.5078284,1,16,2,2,1,2,41.63461538,n/a,n/a,4227254.0,4230763.0,0.0,0.0,0.0,4228720.0,4227770.0,4229763.0,4227770.0,4228364.0,4229770.0,4230764.0,3509.0,516.0,594.0,994.0,1993.0,-4229770.0,0.0,0.0,0.0,1.0,0.0,0.0,0.0,-0.18346120338411182,7.961523920442657,-0.024230724975261835,-0.28384563542447894,4228703.0,4228768.0,65.0,397.8474517890396,8.149121582666865,9.126456017791073,0.03186341536374332,339.0,-0.034142324983428736,1.0,-0.18346120338411182,7.961523920442657,-0.024230724975261835,-0.28384563542447894,4228703.0,4228768.0,65.0,397.8474517890396,8.149121582666865,9.126456017791073,0.03186341536374332,-0.034142324983428736
16,4268.465715,3.5078443,1,17,2,1,1,4,41.63461538,n/a,n/a,4230770.0,4234280.0,0.0,0.0,0.0,4232630.0,4231287.0,4233279.0,4231287.0,4232280.0,4233286.0,4234280.0,3510.0,517.0,993.0,994.0,1992.0,-4233286.0,0.0,0.0,0.0,1.0,0.0,0.0,0.0,-0.15923047840885393,-8.851137680248643,-0.11423056059765394,-0.5503836101523394,4232610.0,4232668.0,58.0,459.7529212501304,8.702843230119122,9.651067582017536,3.09145549490944,330.0,3.0564855588062163,1.0,-0.15923047840885393,-8.851137680248643,-0.11423056059765394,-0.5503836101523394,4232610.0,4232668.0,58.0,459.7529212501304,8.702843230119122,9.651067582017536,3.09145549490944,3.0564855588062163
17,4271.98189,3.507834,1,18,2,2,1,3,41.63461538,n/a,n/a,4234286.0,4237795.0,0.0,0.0,0.0,4235996.0,4234803.0,4236795.0,4234803.0,4235596.0,4236802.0,4237795.0,3509.0,517.0,793.0,993.0,1992.0,-4236802.0,0.0,0.0,0.0,1.0,0.0,0.0,0.0,-0.30461482826041314,10.914210835285084,-0.11423056059765394,-0.9069214205025999,4235969.0,4236044.0,75.0,366.46947928272726,11.246795457747238,12.265632273157916,0.07053997156932242,373.0,0.08703171568147924,1.0,13.21612970793481,-33.26532385889301,-1.7134584089648328,18.726888873736858,4236537.0,4236577.0,40.0,19564.824763520737,50.77729140789829,58.69447429056221,-2.727292939776276,-2.6312978078195224
18,4275.498226,3.5076537,1,19,2,2,1,4,41.63461538,n/a,n/a,4237803.0,4241311.0,0.0,0.0,0.0,4239685.0,4238319.0,4240312.0,4238319.0,4239312.0,4240319.0,4241311.0,3508.0,516.0,993.0,992.0,1993.0,-4240319.0,0.0,0.0,0.0,1.0,0.0,0.0,0.0,-0.3011532961210934,11.014595267325452,-0.079615239204425,-0.7511524742330696,4239667.0,4239760.0,93.0,379.1009883150698,11.335657361140221,11.873477577654667,0.05927584346968004,355.0,0.08055068955249034,1.0,-33.26532385889301,-1.0626903667721301,18.726888873736858,0.4361530495546855,4240254.0,4240308.0,54.0,11259.739698115103,37.034586818511784,41.352955778447026,0.5165492293970395,0.6782967616815901
19,4279.014214,3.5078271,1,20,2,1,1,1,41.63461538,n/a,n/a,4241318.0,4244828.0,0.0,0.0,0.0,4242701.0,4241835.0,4243828.0,4241835.0,4242228.0,4243835.0,4244828.0,3510.0,517.0,393.0,993.0,1993.0,-4243835.0,0.0,0.0,0.0,1.0,0.0,0.0,0.0,-0.34961474607161314,-11.75536314514055,0.024230724975261835,-0.05884604636849078,4242681.0,4242722.0,41.0,518.1302612139875,11.406050950824326,11.180549475425542,3.134309019117001,453.0,3.106910160079334,1.0,-0.34961474607161314,-11.75536314514055,0.024230724975261835,-0.05884604636849078,4242681.0,4242722.0,41.0,518.1302612139875,11.406050950824326,11.180549475425542,3.134309019117001,3.106910160079334
20,4282.538685,3.5078512,1,21,2,1,2,3,41.63461538,n/a,n/a,4244845.0,4248352.0,0.0,0.0,0.0,4246461.0,4245361.0,4247352.0,4245361.0,4246151.0,4247359.0,4248352.0,3507.0,516.0,790.0,993.0,1991.0,-4247359.0,0.0,0.0,0.0,1.0,0.0,0.0,0.0,-0.4361530495546855,-10.135366103937432,-0.22153805691666445,-0.18346120338411182,4246446.0,4246500.0,54.0,522.1348300687956,9.699287794528198,10.40097558634257,-3.137666906448058,295.0,3.1076396726972284,1.0,-0.7511524742330696,-0.1626920105481776,-0.0,0.22153805691666445,4247650.0,4247685.0,35.0,58.47439834207446,0.6287804290709511,0.7878693528465514,-0.3600593293510511,-0.5245956515807337
21,4286.054955,3.5077552,1,22,2,2,1,5,41.63461538,n/a,n/a,4248359.0,4251868.0,0.0,0.0,0.0,4250369.0,4248875.0,4250869.0,4248875.0,4250069.0,4250875.0,4251868.0,3509.0,516.0,1194.0,993.0,1994.0,-4250875.0,0.0,0.0,0.0,1.0,0.0,0.0,0.0,-0.10038443204036315,10.034981671897073,0.07615370706510526,-0.8307677134374947,4250344.0,4250414.0,70.0,441.5232904507838,10.175861266930205,11.252708406768594,0.08924319581713656,275.0,0.1075658833975165,0.0,0.0,0.0,0.0,0.0,0.0,0.0,0.0,0.0,0.0,0.0,0.0,0.0
22,4289.571041,3.5078326,1,23,2,2,1,5,41.63461538,n/a,n/a,4251875.0,4255384.0,0.0,0.0,0.0,4253968.0,4252392.0,4254385.0,4252392.0,4253584.0,4254391.0,4255385.0,3509.0,517.0,1192.0,994.0,1993.0,-4254391.0,0.0,0.0,0.0,1.0,0.0,0.0,0.0,-0.04153838567187631,10.824210999662693,0.11423056059765394,-1.0661518989114498,4253936.0,4254018.0,82.0,382.1340911634091,10.929675770836724,11.531132528876572,0.10820898879618002,352.0,0.1279294664215232,1.0,14.389589103165273,13.693821143161367,-1.903842676627592,-1.6719200232929563,4254183.0,4254213.0,30.0,85.66854971536664,0.7334038255270933,0.889014187408307,-2.819842099193151,-2.800140215280342
23,4293.087194,3.5079274,1,24,2,2,1,2,41.63461538,n/a,n/a,4255391.0,4258901.0,0.0,0.0,0.0,4257001.0,4255908.0,4257900.0,4255908.0,4256501.0,4257907.0,4258901.0,3510.0,517.0,593.0,994.0,1992.0,-4257907.0,0.0,0.0,0.0,1.0,0.0,0.0,0.0,-0.31499942467838415,9.571136365227803,-0.15923047840885393,-0.2319226533346355,4256983.0,4257065.0,82.0,390.808358234348,9.88640303693712,11.60205657332948,0.007352808666690889,482.0,0.06329352130417457,0.0,0.0,0.0,0.0,0.0,0.0,0.0,0.0,0.0,0.0,0.0,0.0,0.0
24,4296.603475,3.5077048,1,25,2,1,1,1,41.63461538,n/a,n/a,4258908.0,4262417.0,0.0,0.0,0.0,4260183.0,4259424.0,4261417.0,4259424.0,4259817.0,4261424.0,4262417.0,3509.0,516.0,393.0,993.0,1993.0,-4261424.0,0.0,0.0,0.0,1.0,0.0,0.0,0.0,-0.23538418547395523,-11.142671956480397,-0.02769225711458158,-0.01384612855729079,4260159.0,4260231.0,72.0,609.3869785780718,10.907296559405667,11.767169338190717,-3.1403232159981176,342.0,3.103930165162762,1.0,-0.23538418547395523,-11.142671956480397,-0.02769225711458158,-0.01384612855729079,4260159.0,4260231.0,72.0,609.3869785780718,10.907296559405667,11.767169338190717,-3.1403232159981176,3.103930165162762
25,4300.119505,3.5078335,1,26,2,2,1,2,41.63461538,n/a,n/a,4262423.0,4265932.0,0.0,0.0,0.0,4264017.0,4262940.0,4264933.0,4262940.0,4263534.0,4264940.0,4265933.0,3509.0,517.0,594.0,993.0,1993.0,-4264940.0,0.0,0.0,0.0,1.0,0.0,0.0,0.0,-0.3634608746289039,10.062673929011655,0.0692306427864579,-0.22153805691666445,4263998.0,4264071.0,73.0,444.3033782517925,10.430188559197385,12.006330587433053,0.027881219364174446,464.0,0.06578186472225282,1.0,-1.4296127735403539,-0.5503836101523394,-0.19730733194140657,-0.07269217492578157,4265746.0,4265798.0,52.0,140.2347800957613,0.8880162493502113,1.535687969348947,-0.14079451921849215,0.18590181313485116
26,4303.635672,3.5078448,1,27,2,1,1,3,41.63461538,n/a,n/a,4265940.0,4269449.0,0.0,0.0,0.0,4267550.0,4266456.0,4268449.0,4266456.0,4267250.0,4268456.0,4269449.0,3509.0,516.0,794.0,993.0,1993.0,-4268456.0,0.0,0.0,0.0,1.0,0.0,0.0,0.0,-0.13153822129426843,-10.03498167189707,0.12807668915494866,-0.33230708537499865,4267534.0,4267606.0,72.0,570.2444482950576,9.914138661484314,11.150770654575014,3.095138855309862,284.0,3.0788446541862617,1.0,-0.13153822129426843,-10.03498167189707,0.12807668915494866,-0.33230708537499865,4267534.0,4267606.0,72.0,570.2444482950576,9.914138661484314,11.150770654575014,3.095138855309862,3.0788446541862617
27,4307.152031,3.5076292,1,28,2,2,1,5,41.63461538,n/a,n/a,4269456.0,4272965.0,0.0,0.0,0.0,4271499.0,4269972.0,4271965.0,4269972.0,4271166.0,4271972.0,4272965.0,3509.0,516.0,1194.0,993.0,1993.0,-4271972.0,0.0,0.0,0.0,1.0,0.0,0.0,0.0,-0.02769225711458158,10.304981178764258,-0.11769209273697762,-0.8688445669700473,4271476.0,4271561.0,85.0,392.3112178406925,10.359940654852355,11.636127057225785,0.07256915859529686,310.0,0.09623498632423795,1.0,12.388823526636642,-33.26532385889301,-1.7515352624973854,18.726888873736858,4272224.0,4272266.0,42.0,18669.146538321253,50.03665684878602,56.00743961496376,-2.7199405286345884,-2.6146348570556257
28,4310.667975,3.5078283,1,29,2,1,2,2,41.63461538,n/a,n/a,4272972.0,4276481.0,0.0,0.0,0.0,4274522.0,4273489.0,4275482.0,4273489.0,4274082.0,4275488.0,4276482.0,3509.0,517.0,593.0,994.0,1993.0,-4275488.0,0.0,0.0,0.0,1.0,0.0,0.0,0.0,-0.048461449950519736,-10.152673764634047,0.26653797472786445,0.17999967124479208,4274509.0,4274586.0,77.0,531.1058415190142,10.104582889865963,11.500429366023553,3.133028286080228,427.0,-3.1039598268250104,1.0,-0.21461499263802103,-0.8099985206015565,0.4292299852760381,0.33923014965364207,4275577.0,4275599.0,22.0,70.96140885611906,0.6021474203069912,0.7258082611148549,2.9915656968056834,-0.33532438131501613
29,4314.184137,3.5079762,1,30,2,2,1,2,41.63461538,n/a,n/a,4276488.0,4279998.0,0.0,0.0,0.0,4278015.0,4277005.0,4278998.0,4277005.0,4277598.0,4279005.0,4279998.0,3510.0,517.0,593.0,993.0,1993.0,-4279005.0,0.0,0.0,0.0,1.0,0.0,0.0,0.0,0.04153838567187631,9.117675654976507,-0.2561533783098934,-0.20769192835937367,4277999.0,4278066.0,67.0,415.3938726053416,9.076266646776737,10.34366505693408,-0.005339384804579132,401.0,0.03815963182938272,1.0,14.102281935601475,13.624590500374909,-0.4119223245794236,-0.19730733194140657,4278315.0,4278341.0,26.0,85.45459682215488,0.5236875999618784,0.6360276838452847,-2.71934150013853,2.831889709047336
30,4317.70031,3.5078195,1,31,2,1,1,3,41.63461538,n/a,n/a,4280004.0,4283514.0,0.0,0.0,0.0,4281731.0,4280521.0,4282514.0,4280521.0,4281314.0,4282521.0,4283514.0,3510.0,517.0,793.0,993.0,1993.0,-4282521.0,0.0,0.0,0.0,1.0,0.0,0.0,0.0,-0.08307677134374868,-11.374594609815032,-0.04153838567187631,-0.2596149104492171,4281706.0,4281786.0,80.0,516.59783438398,11.293623531319527,12.637098114473957,3.1222817496431134,392.0,3.1029605679450643,1.0,1.1596132666731696,0.5296144173164012,0.05192298208984342,0.17999967124479208,4282732.0,4282753.0,21.0,61.68480920505153,0.6428858285074772,0.6943284712400034,-2.941029205709838,-2.9050781172293565
31,4321.216461,3.507842,1,32,2,2,1,4,41.63461538,n/a,n/a,4283520.0,4287030.0,0.0,0.0,0.0,4285330.0,4284037.0,4286030.0,4284037.0,4285030.0,4286037.0,4287030.0,3510.0,517.0,993.0,993.0,1993.0,-4286037.0,0.0,0.0,0.0,1.0,0.0,0.0,0.0,-0.15576894626953025,9.17652170134499,0.16961507482682103,-0.5261528851770815,4285313.0,4285380.0,67.0,419.4703188385653,9.358191159926228,10.54002375265715,0.07441721889318284,283.0,0.09208709841057759,0.0,0.0,0.0,0.0,0.0,0.0,0.0,0.0,0.0,0.0,0.0,0.0,0.0
32,4324.732599,3.5078272,1,33,2,2,2,5,41.63461538,n/a,n/a,4287037.0,4290546.0,0.0,0.0,0.0,4289047.0,4287553.0,4289546.0,4287553.0,4288746.0,4289553.0,4290546.0,3509.0,516.0,1193.0,993.0,1993.0,-4289553.0,0.0,0.0,0.0,1.0,0.0,0.0,0.0,-0.03461532139322895,9.190367829902284,0.04153838567187631,0.8099985206015565,4289022.0,4289098.0,76.0,384.8588830225574,9.25693497442119,10.491767439269223,-0.08311017791664796,276.0,-0.0888676673620768,1.0,-33.26532385889301,-0.713075620700517,18.726888873736858,0.44999917811197626,4289676.0,4289730.0,54.0,11534.669662832513,37.332205430525335,45.80132002356864,0.5116015180138065,0.5374643035643762
33,4328.248854,3.5077211,1,34,2,2,1,4,41.63461538,n/a,n/a,4290553.0,4294062.0,0.0,0.0,0.0,4292429.0,4291069.0,4293062.0,4291069.0,4292062.0,4293069.0,4294062.0,3509.0,516.0,993.0,993.0,1993.0,-4293069.0,0.0,0.0,0.0,1.0,0.0,0.0,0.0,-0.079615239204425,9.7372899079153,-0.04153838567187631,-0.5192298208984342,4292408.0,4292481.0,73.0,342.1458907390911,9.828520528280672,10.757186620572057,0.04862173325161698,346.0,0.06536948289952237,0.0,0.0,0.0,0.0,0.0,0.0,0.0,0.0,0.0,0.0,0.0,0.0,0.0
34,4331.764921,3.5078284,1,35,2,1,1,1,41.63461538,n/a,n/a,4294069.0,4297578.0,0.0,0.0,0.0,4295302.0,4294585.0,4296579.0,4294585.0,4294978.0,4296585.0,4297578.0,3509.0,516.0,393.0,993.0,1994.0,-4296585.0,0.0,0.0,0.0,1.0,0.0,0.0,0.0,-0.29076869970312236,-10.779211081851493,0.33576861751432235,-0.062307578507810525,4295285.0,4295363.0,78.0,560.2209913816204,10.495993914893702,11.628339604434435,3.1036570665038057,307.0,3.0909653119292795,1.0,-0.1903842676627592,-0.2561533783098934,0.2976917639817697,0.26653797472786445,4296835.0,4296856.0,21.0,20.290930703755006,0.07277454568866593,0.15468827650754802,2.6992184306130533,2.435393561161797
35,4335.281072,3.5078701,1,36,2,1,2,5,41.63461538,n/a,n/a,4297585.0,4301094.0,0.0,0.0,0.0,4299578.0,4298101.0,4300094.0,4298101.0,4299294.0,4300101.0,4301094.0,3509.0,516.0,1193.0,993.0,1993.0,-4300101.0,0.0,0.0,0.0,1.0,0.0,0.0,0.0,-0.1107690284583342,-10.228827471699153,0.020769192835938154,0.46384530666926704,4299562.0,4299631.0,69.0,623.4968492996888,10.127755087060828,11.063537595519994,-3.097829986603334,268.0,-3.0796032123952735,1.0,-0.9553828704531196,-0.9449982740351486,0.9346136776171815,0.8896137598059854,4300461.0,4300480.0,19.0,35.0927966574939,0.04618259895002161,0.15653628562397462,1.3439974787409532,1.8855539881862038
36,4338.797274,3.5078048,1,37,2,2,2,3,41.63461538,n/a,n/a,4301101.0,4304611.0,0.0,0.0,0.0,4302901.0,4301618.0,4303610.0,4301618.0,4302411.0,4303617.0,4304611.0,3510.0,517.0,793.0,994.0,1992.0,-4303617.0,0.0,0.0,0.0,1.0,0.0,0.0,0.0,-0.22153805691666445,10.287673518067644,0.2561533783098934,0.7234602171184842,4302882.0,4302955.0,73.0,394.34551050572827,10.519596171402277,11.53222926552997,-0.044437130653438114,471.0,-0.06728695608075264,1.0,-33.26532385889301,-0.578075867266925,18.726888873736858,0.6299988493567683,4303634.0,4303706.0,72.0,10904.113169854736,37.36246257703809,42.02957286168959,0.5056317151952614,0.6800274065787424
37,4342.313456,3.5077621,1,38,2,2,1,3,41.63461538,n/a,n/a,4304617.0,4308126.0,0.0,0.0,0.0,4306294.0,4305134.0,4307127.0,4305134.0,4305927.0,4307134.0,4308126.0,3509.0,517.0,793.0,992.0,1993.0,-4307134.0,0.0,0.0,0.0,1.0,0.0,0.0,0.0,-0.20769192835937367,9.754597568611915,0.2596149104492171,-0.11769209273697762,4306279.0,4306362.0,83.0,393.476046222714,9.969431909397736,10.823723916704335,0.03785543020769699,352.0,0.06624906237622663,1.0,12.762668997683512,12.087670230515549,-0.15576894626953025,-0.044999917811196055,4306486.0,4306511.0,25.0,109.49365977983885,0.6840271290993326,0.9506806719404121,-2.9789398112590284,3.002785187507189
38,4345.829566,3.5078155,1,39,2,1,1,2,41.63461538,n/a,n/a,4308133.0,4311642.0,0.0,0.0,0.0,4309550.0,4308650.0,4310643.0,4308650.0,4309244.0,4310650.0,4311642.0,3509.0,517.0,594.0,992.0,1993.0,-4310650.0,0.0,0.0,0.0,1.0,0.0,0.0,0.0,-0.3115378925390605,-10.872672449613212,0.0034615321393236813,0.03807685353255263,4309537.0,4309595.0,58.0,548.6576972433228,10.561191284751024,11.328956411070982,-3.1383150514295,293.0,-3.1082818369682563,1.0,-0.3115378925390605,-10.872672449613212,0.0034615321393236813,0.03807685353255263,4309537.0,4309595.0,58.0,548.6576972433228,10.561191284751024,11.328956411070982,-3.1383150514295,-3.1082818369682563
39,4349.345714,3.5078262,1,40,2,2,2,2,41.63461538,n/a,n/a,4311649.0,4315159.0,0.0,0.0,0.0,4313076.0,4312167.0,4314159.0,4312167.0,4312759.0,4314166.0,4315159.0,3510.0,518.0,592.0,993.0,1992.0,-4314166.0,0.0,0.0,0.0,1.0,0.0,0.0,0.0,-0.3530762782109368,10.284211985928316,0.10384596417968683,0.5123067566197868,4313061.0,4313128.0,67.0,457.47588323542067,10.64512761000804,11.706932912395674,-0.03838010251876967,302.0,-0.05443240756859,1.0,10.280750453788997,10.408827142943945,0.49153756378385255,0.5123067566197868,4313131.0,4313153.0,22.0,29.603465033145053,0.12974975019609697,0.2152004213862007,-0.1607627406258088,-0.4492601126118769
40,4352.861886,3.5078584,1,41,2,2,2,4,41.63461538,n/a,n/a,4315166.0,4318675.0,0.0,0.0,0.0,4317032.0,4315682.0,4317675.0,4315682.0,4316675.0,4317682.0,4318675.0,3509.0,516.0,993.0,993.0,1993.0,-4317682.0,0.0,0.0,0.0,1.0,0.0,0.0,0.0,-0.2319226533346355,10.218442875281186,-0.0034615321393236813,0.7996139241835893,4317018.0,4317092.0,74.0,394.74706383189124,10.48117693153923,11.51940947778826,-0.07669590150321301,343.0,-0.08785770719674002,1.0,-0.2319226533346355,10.218442875281186,-0.0034615321393236813,0.7996139241835893,4317018.0,4317092.0,74.0,394.74706383189124,10.48117693153923,11.51940947778826,-0.07669590150321301,-0.08785770719674002
41,4356.378064,3.5078023,1,42,2,1,2,5,41.63461538,n/a,n/a,4318682.0,4322191.0,0.0,0.0,0.0,4320665.0,4319198.0,4321191.0,4319198.0,4320391.0,4321198.0,4322191.0,3509.0,516.0,1193.0,993.0,1993.0,-4321198.0,0.0,0.0,0.0,1.0,0.0,0.0,0.0,0.2007688640807263,-9.868828129209573,0.294230231842446,0.9588444025924433,4320646.0,4320714.0,68.0,577.1864813549945,10.091506111737868,11.470119859696641,-3.0756861822813426,255.0,-3.065468850369266,1.0,0.33576861751432235,0.22153805691666445,0.6299988493567683,0.46730683880859075,4321967.0,4321987.0,20.0,21.770685926918922,0.19878961560067349,0.23264483416319803,2.1829488237399852,-0.7538297069096634
42,4359.894201,3.5078109,1,43,2,1,1,2,41.63461538,n/a,n/a,4322198.0,4325708.0,0.0,0.0,0.0,4323631.0,4322715.0,4324707.0,4322715.0,4323308.0,4324714.0,4325708.0,3510.0,517.0,593.0,994.0,1992.0,-4324714.0,0.0,0.0,0.0,1.0,0.0,0.0,0.0,-0.12807668915494866,-11.603055731010343,0.1107690284583342,0.3253840210963513,4323619.0,4323682.0,63.0,572.87775913902,11.476985824077923,12.298087131300901,-3.1228919681071443,311.0,3.0954153036074294,1.0,-11.606517263149664,-11.163441149316334,0.31846095681770786,0.06576911064713421,4323685.0,4323706.0,21.0,47.769700931985795,0.5100682422683634,0.5384546483907676,0.5183043636035836,0.532701902670747
43,4363.410351,3.5078318,1,44,2,2,2,1,41.63461538,n/a,n/a,4325714.0,4329223.0,0.0,0.0,0.0,4327081.0,4326231.0,4328223.0,4326231.0,4326624.0,4328230.0,4329223.0,3509.0,517.0,393.0,993.0,1992.0,-4328230.0,0.0,0.0,0.0,1.0,0.0,0.0,0.0,-0.3703839389075513,10.128443039658785,0.04153838567187631,0.044999917811196055,4327061.0,4327150.0,89.0,433.983432528752,10.49882754921125,11.35614746656419,-0.00032970654921319514,437.0,0.053368078832213256,1.0,-1.3776897914505104,-1.5092280127447828,0.3011532961210934,0.16615354268749735,4328632.0,4328655.0,23.0,28.80568831057366,0.1884867026832203,0.2623923560290872,2.34320820727217,2.601173153319199
44,4366.926514,3.5078939,1,45,2,1,1,5,41.63461538,n/a,n/a,4329230.0,4332739.0,0.0,0.0,0.0,4331223.0,4329747.0,4331740.0,4329747.0,4330940.0,4331746.0,4332739.0,3509.0,517.0,1193.0,993.0,1993.0,-4331746.0,0.0,0.0,0.0,1.0,0.0,0.0,0.0,-0.31846095681770786,-10.699595842647067,0.01384612855729079,-0.8861522276666618,4331209.0,4331280.0,71.0,588.7754240705833,10.420074786631293,11.489115105270287,3.0551133188938002,269.0,3.0371572785974,1.0,0.8446138419947854,0.2007688640807263,0.6819218314466118,0.6611526386106736,4332645.0,4332668.0,23.0,49.02140074223359,0.6441798777951789,0.655144683566785,3.1093457711545383,-0.18599708979416205
45,4370.442674,3.5078566,1,46,2,2,2,1,41.63461538,n/a,n/a,4332746.0,4336256.0,0.0,0.0,0.0,4334073.0,4333263.0,4335256.0,4333263.0,4333656.0,4335263.0,4336256.0,3510.0,517.0,393.0,993.0,1993.0,-4335263.0,0.0,0.0,0.0,1.0,0.0,0.0,0.0,-0.29076869970312236,9.764982165029881,0.24576878189192627,0.20769192835937367,4334053.0,4334127.0,74.0,354.3682183641956,10.05582295490297,11.006632605781558,0.0037865567735761037,397.0,0.04121052319386856,1.0,10.73767269617962,10.806903338966078,-0.14192281771223947,-0.04153838567187631,4334773.0,4334793.0,20.0,27.121471865252705,0.12194226542381613,0.14056548522069956,-0.9670469933974566,-2.233999319501
46,4373.9589,3.5077858,1,47,2,2,1,4,41.63461538,n/a,n/a,4336263.0,4339772.0,0.0,0.0,0.0,4338129.0,4336779.0,4338772.0,4336779.0,4337772.0,4338779.0,4339772.0,3509.0,516.0,993.0,993.0,1993.0,-4338779.0,0.0,0.0,0.0,1.0,0.0,0.0,0.0,-0.578075867266925,9.387675161843692,0.14192281771223947,-0.3634608746289039,4338112.0,4338187.0,75.0,405.4616844804026,9.978557323115586,11.173043442111116,0.05066864748208118,340.0,0.07784115544585297,1.0,-0.9103829526419196,-0.8965368240846289,-0.05884604636849078,-0.1384612855729158,4339007.0,4339033.0,26.0,27.86599066434959,0.0808102814597427,0.20841183321592932,1.3986055122719638,2.4149503129080676
47,4377.475014,3.5078457,1,48,2,2,1,2,41.63461538,n/a,n/a,4339779.0,4343288.0,0.0,0.0,0.0,4341271.0,4340295.0,4342289.0,4340295.0,4340888.0,4342295.0,4343288.0,3509.0,516.0,593.0,993.0,1994.0,-4342295.0,0.0,0.0,0.0,1.0,0.0,0.0,0.0,-0.24923031403124998,8.944599048010362,0.1626920105481776,-0.05192298208984342,4341247.0,4341321.0,74.0,414.2300126723074,9.19633393985905,10.206996522791226,0.0233391348431442,359.0,0.04274380694653004,1.0,-33.26532385889301,-1.176920927369784,18.726888873736858,0.07615370706510526,4342042.0,4342128.0,86.0,11397.960064911778,37.11489626757854,41.11394022726858,0.526503516020083,2.463801176464412
48,4380.991178,3.6161609,1,49,2,2,1,3,41.63461538,n/a,n/a,4343295.0,4346912.0,0.0,0.0,0.0,4345054.0,4343922.0,4345913.0,4343922.0,4344711.0,4345919.0,4346913.0,3617.0,627.0,789.0,994.0,1991.0,-4345919.0,0.0,0.0,0.0,1.0,0.0,0.0,0.0,-0.26307644258854074,9.491521126023377,0.19384579980208289,-0.4465376459726526,4345035.0,4345077.0,42.0,402.12127190373644,9.775595362083674,9.886418186779185,0.0655553270005013,324.0,0.07043436400183299,0.0,0.0,0.0,0.0,0.0,0.0,0.0,0.0,0.0,0.0,0.0,0.0,0.0
49,4384.615656,3.5078762,1,50,2,1,1,2,41.63461538,n/a,n/a,4346919.0,4350429.0,0.0,0.0,0.0,4348452.0,4347436.0,4349429.0,4347436.0,4348029.0,4349436.0,4350429.0,3510.0,517.0,593.0,993.0,1993.0,-4349436.0,0.0,0.0,0.0,1.0,0.0,0.0,0.0,-0.1903842676627592,-10.716903503343682,0.07269217492578157,-0.14538434985156315,4348431.0,4348509.0,78.0,579.8138089392377,10.528777924803022,11.410689598239498,3.12087874719125,402.0,3.1121626100101936,1.0,-10.69267277836842,-10.384596417968684,-0.15230741413020657,-0.1349997534335921,4348511.0,4348530.0,19.0,25.047985035782855,0.3085621476395601,0.3082513320002236,-0.05612078270117658,-0.21501488174751815
50,4388.13186,3.5078218,1,51,2,2,1,1,41.63461538,n/a,n/a,4350435.0,4353945.0,0.0,0.0,0.0,4351685.0,4350952.0,4352944.0,4350952.0,4351345.0,4352952.0,4353945.0,3510.0,517.0,393.0,993.0,1992.0,-4352952.0,0.0,0.0,0.0,1.0,0.0,0.0,0.0,-0.36692240676822757,8.85806074452729,0.28730716756379865,0.7269217492578078,4351667.0,4351742.0,75.0,417.2323046638111,9.235452080008004,10.074258094952418,-0.04761875898544736,322.0,-0.05465988307015647,0.0,0.0,0.0,0.0,0.0,0.0,0.0,0.0,0.0,0.0,0.0,0.0,0.0
51,4391.648019,3.5078224,1,52,2,2,2,3,41.63461538,n/a,n/a,4353951.0,4357461.0,0.0,0.0,0.0,4355644.0,4354468.0,4356461.0,4354468.0,4355261.0,4356468.0,4357461.0,3510.0,517.0,793.0,993.0,1993.0,-4356468.0,0.0,0.0,0.0,1.0,0.0,0.0,0.0,0.03461532139322895,9.349598308311135,0.26653797472786445,0.7442294099544223,4355626.0,4355692.0,66.0,398.6798342337108,9.327223442904048,10.202598068054701,-0.05123716740341866,365.0,-0.04819634271855661,0.0,0.0,0.0,0.0,0.0,0.0,0.0,0.0,0.0,0.0,0.0,0.0,0.0
52,4395.164171,3.9994396,1,53,2,2,1,4,41.63461538,n/a,n/a,4357468.0,4361468.0,0.0,0.0,0.0,4359744.0,4358478.0,4360469.0,4358478.0,4359467.0,4360476.0,4361469.0,4000.0,1010.0,989.0,993.0,1991.0,-4360476.0,0.0,1.0,0.0,0.0,0.0,0.0,0.0,0.0,0.0,0.0,0.0,0.0,0.0,0.0,0.0,0.0,0.0,0.0,0.0,0.0,0.0,0.0,0.0,0.0,0.0,0.0,0.0,0.0,0.0,0.0,0.0,0.0,0.0
53,4399.171934,3.991095,1,54,2,1,1,3,41.63461538,n/a,n/a,4361475.0,4365468.0,0.0,0.0,0.0,4363601.0,4362475.0,4364468.0,4362475.0,4363268.0,4364475.0,4365469.0,3993.0,1000.0,793.0,994.0,1993.0,-4364475.0,0.0,1.0,0.0,0.0,0.0,0.0,0.0,0.0,0.0,0.0,0.0,0.0,0.0,0.0,0.0,0.0,0.0,0.0,0.0,0.0,0.0,0.0,0.0,0.0,0.0,0.0,0.0,0.0,0.0,0.0,0.0,0.0,0.0
54,4403.171369,3.6578078,1,55,2,1,2,1,41.63461538,n/a,n/a,4365475.0,4369135.0,0.0,0.0,0.0,4367018.0,4366141.0,4368134.0,4366141.0,4366535.0,4368141.0,4369135.0,3660.0,666.0,394.0,994.0,1993.0,-4368141.0,0.0,0.0,0.0,1.0,0.0,0.0,0.0,-0.32192248895702763,-9.089983397861921,-0.02769225711458158,0.30461482826041314,4367003.0,4367054.0,51.0,527.9671879900521,8.77435582258074,9.971643149932895,-3.1037110605683096,468.0,3.0908888431738903,1.0,-9.398059758261658,-9.384213629704368,0.3461532139322894,0.4084607924401,4367070.0,4367097.0,27.0,34.043288188614504,0.06382749889766946,0.18924801188500792,-1.3521273809209613,-0.8760580505981854
55,4406.837484,3.5078595,1,56,2,2,1,2,41.63461538,n/a,n/a,4369141.0,4372650.0,0.0,0.0,0.0,4370657.0,4369658.0,4371650.0,4369658.0,4370251.0,4371657.0,4372650.0,3509.0,517.0,593.0,993.0,1992.0,-4371657.0,0.0,0.0,0.0,1.0,0.0,0.0,0.0,-0.03461532139322895,9.661136200850194,0.28730716756379865,0.28038410328515523,4370639.0,4370711.0,72.0,363.2964604527732,9.695753993883336,10.710014562065059,0.0007140305819729355,388.0,0.056914833317281234,0.0,0.0,0.0,0.0,0.0,0.0,0.0,0.0,0.0,0.0,0.0,0.0,0.0
56,4410.353671,3.6911037,1,57,2,2,1,2,41.63461538,n/a,n/a,4372657.0,4376350.0,0.0,0.0,0.0,4374433.0,4373357.0,4375350.0,4373357.0,4373950.0,4375357.0,4376350.0,3693.0,700.0,593.0,993.0,1993.0,-4375357.0,0.0,0.0,0.0,1.0,0.0,0.0,0.0,-0.32192248895702763,8.885753001641872,0.05884604636849078,-0.031153789253905263,4374408.0,4374494.0,86.0,398.4038198007374,9.208115328914367,9.869843103627469,0.009774124826160645,458.0,0.04806688003463831,1.0,11.644594116682219,11.163441149316334,-0.3461532139322894,-0.24923031403124998,4374852.0,4374877.0,25.0,58.17765897057319,0.49081791586108975,0.5724938834342023,-2.9428139687574526,2.9714738381736936
57,4414.053113,3.674457,1,58,2,2,2,1,41.63461538,n/a,n/a,4376356.0,4380032.0,0.0,0.0,0.0,4377906.0,4377040.0,4379033.0,4377040.0,4377433.0,4379040.0,4380033.0,3676.0,684.0,393.0,993.0,1993.0,-4379040.0,0.0,0.0,0.0,1.0,0.0,0.0,0.0,-0.12807668915494866,10.107673846822852,0.1384612855729158,0.9276906133385341,4377887.0,4377960.0,73.0,406.8396676934214,10.266132278836816,11.151637255900843,-0.07695291482672369,454.0,-0.08110478482859632,0.0,0.0,0.0,0.0,0.0,0.0,0.0,0.0,0.0,0.0,0.0,0.0,0.0
58,4417.736049,3.507708,1,59,2,2,1,2,41.63461538,n/a,n/a,4380040.0,4383549.0,0.0,0.0,0.0,4381506.0,4380556.0,4382549.0,4380556.0,4381149.0,4382556.0,4383549.0,3509.0,516.0,593.0,993.0,1993.0,-4382556.0,0.0,0.0,0.0,1.0,0.0,0.0,0.0,-0.24923031403124998,9.681905393686137,0.28038410328515523,0.09346136776171972,4381485.0,4381557.0,72.0,381.92935117567623,9.932894671451768,11.110232689033866,0.018819666996123183,336.0,0.05923150784944397,1.0,8.124215930990834,7.878447149098904,-0.08307677134374868,-0.2388457176132789,4382017.0,4382038.0,21.0,24.774082313920175,0.29097467033156504,0.27627277149127494,2.5766882515590255,0.6610431688506881
59,4421.252088,3.5078314,1,60,2,1,1,4,41.63461538,n/a,n/a,4383555.0,4387065.0,0.0,0.0,0.0,4385405.0,4384072.0,4386064.0,4384072.0,4385065.0,4386072.0,4387065.0,3510.0,517.0,993.0,993.0,1992.0,-4386072.0,0.0,0.0,0.0,1.0,0.0,0.0,0.0,-0.010384596417967108,-9.827289743537696,0.16615354268749735,0.062307578507810525,4385390.0,4385463.0,73.0,578.6573908433193,9.817454387560057,10.968927381274506,3.1310147688665206,325.0,3.1078195829292183,0.0,0.0,0.0,0.0,0.0,0.0,0.0,0.0,0.0,0.0,0.0,0.0,0.0
60,4424.768376,3.5077166,1,61,2,2,1,2,41.63461538,n/a,n/a,4387072.0,4390581.0,0.0,0.0,0.0,4390148.0,4387588.0,4389581.0,4387588.0,4388181.0,4389588.0,4390581.0,3509.0,516.0,593.0,993.0,1993.0,-4389588.0,0.0,1.0,0.0,0.0,0.0,0.0,0.0,0.0,0.0,0.0,0.0,0.0,0.0,0.0,0.0,0.0,0.0,0.0,0.0,0.0,0.0,0.0,0.0,0.0,0.0,0.0,0.0,0.0,0.0,0.0,0.0,0.0,0.0
61,4428.284413,3.5078953,1,62,2,2,1,5,41.63461538,n/a,n/a,4390588.0,4394098.0,0.0,0.0,0.0,4392588.0,4391104.0,4393097.0,4391104.0,4392297.0,4393104.0,4394098.0,3510.0,516.0,1193.0,994.0,1993.0,-4393104.0,0.0,0.0,0.0,1.0,0.0,0.0,0.0,-0.03807685353255263,9.92767417557806,0.294230231842446,-0.4742299030872381,4392561.0,4392640.0,79.0,403.40424201698806,9.995335139613648,11.118088822118928,0.07695781918072772,264.0,0.09635381596929499,1.0,-0.5573066744309868,-0.3703839389075513,0.3530762782109368,0.2769225711458316,4393311.0,4393333.0,22.0,43.73205933818077,0.20184027386852726,0.2527155541826503,0.3868757177310368,-0.6298033354204062
62,4431.800616,3.5077844,1,63,2,2,1,5,41.63461538,n/a,n/a,4394104.0,4397613.0,0.0,0.0,0.0,4397113.0,4394620.0,4396613.0,4394620.0,4395814.0,4396620.0,4397613.0,3509.0,516.0,1194.0,993.0,1993.0,-4396620.0,0.0,0.0,0.0,0.0,1.0,0.0,0.0,0.0,0.0,0.0,0.0,0.0,0.0,0.0,0.0,0.0,0.0,0.0,0.0,0.0,0.0,0.0,0.0,0.0,0.0,0.0,0.0,0.0,0.0,0.0,0.0,0.0,0.0
63,4435.316703,3.5078801,1,64,2,1,1,3,41.63461538,n/a,n/a,4397620.0,4401129.0,0.0,0.0,0.0,4400613.0,4398137.0,4400130.0,4398137.0,4398929.0,4400136.0,4401129.0,3509.0,517.0,792.0,993.0,1993.0,-4400136.0,0.0,1.0,0.0,0.0,0.0,0.0,0.0,0.0,0.0,0.0,0.0,0.0,0.0,0.0,0.0,0.0,0.0,0.0,0.0,0.0,0.0,0.0,0.0,0.0,0.0,0.0,0.0,0.0,0.0,0.0,0.0,0.0,0.0
64,4438.832895,3.5078191,1,65,2,2,1,2,41.63461538,n/a,n/a,4401136.0,4404646.0,0.0,0.0,0.0,4402895.0,4401653.0,4403646.0,4401653.0,4402246.0,4403652.0,4404646.0,3510.0,517.0,593.0,994.0,1993.0,-4403652.0,0.0,0.0,0.0,0.0,0.0,0.0,1.0,-0.3011532961210934,9.668059265128843,0.14192281771223947,0.16615354268749735,4402870.0,4402955.0,85.0,437.31640738324455,9.969242008268047,10.990822436275623,-0.0024305507693220337,624.0,0.04442220717822205,0.0,0.0,0.0,0.0,0.0,0.0,0.0,0.0,0.0,0.0,0.0,0.0,0.0
65,4442.349057,3.5078225,1,66,2,2,2,1,41.63461538,n/a,n/a,4404652.0,4408162.0,0.0,0.0,0.0,4406012.0,4405169.0,4407162.0,4405169.0,4405562.0,4407169.0,4408162.0,3510.0,517.0,393.0,993.0,1993.0,-4407169.0,0.0,0.0,0.0,1.0,0.0,0.0,0.0,-0.18346120338411182,10.118058443240818,0.2007688640807263,0.4361530495546855,4405988.0,4406057.0,69.0,479.2954838646983,10.304208496753677,11.366233717139345,-0.022845487058479868,426.0,0.031068610328237566,0.0,0.0,0.0,0.0,0.0,0.0,0.0,0.0,0.0,0.0,0.0,0.0,0.0
66,4445.865215,3.5078345,1,67,2,1,2,3,41.63461538,n/a,n/a,4408168.0,4411678.0,0.0,0.0,0.0,4409895.0,4408685.0,4410678.0,4408685.0,4409478.0,4410685.0,4411678.0,3510.0,517.0,793.0,993.0,1993.0,-4410685.0,0.0,0.0,0.0,1.0,0.0,0.0,0.0,-0.21461499263802103,-10.616519071303319,0.28384563542447894,0.5330759494557249,4409874.0,4409948.0,74.0,540.1087163946971,10.404889437720415,11.799154155614822,-3.117637170491968,396.0,-3.0893488154524404,1.0,-0.31846095681770786,-1.007305852542963,0.38769159960416577,0.418845388858071,4411242.0,4411289.0,47.0,182.3812853046243,0.6895490185270474,1.7362956878060392,-3.096397320368965,-2.9082188853379995
67,4449.381382,3.5078659,1,68,2,1,1,1,41.63461538,n/a,n/a,4411685.0,4415194.0,0.0,0.0,0.0,4413144.0,4412201.0,4414194.0,4412201.0,4412595.0,4414201.0,4415195.0,3509.0,516.0,394.0,994.0,1993.0,-4414201.0,0.0,0.0,0.0,1.0,0.0,0.0,0.0,-0.0692306427864579,-10.886518578170502,0.3807685353255184,0.5607682065703105,4413122.0,4413195.0,73.0,645.32022884026,10.818785428995874,12.123068374563541,-3.124954189149008,527.0,-3.092461269599685,1.0,-1.4815357556301971,-1.1907670559270749,1.0453827060755136,0.758075538511713,4413735.0,4413755.0,20.0,47.9990802256604,0.40876869408086813,0.5117099964198062,0.7794102110135371,0.8093170458953561
68,4452.897574,3.5077691,1,69,2,2,1,3,41.63461538,n/a,n/a,4415201.0,4418710.0,0.0,0.0,0.0,4416811.0,4415717.0,4417710.0,4415717.0,4416511.0,4417717.0,4418710.0,3509.0,516.0,794.0,993.0,1993.0,-4417717.0,0.0,0.0,0.0,1.0,0.0,0.0,0.0,-0.19384579980208289,8.567292044824164,0.20423039622005,-0.09346136776171972,4416790.0,4416866.0,76.0,337.4599336186392,8.766193969955538,9.843380193914786,0.033965596925570586,279.0,0.05066084011329132,0.0,0.0,0.0,0.0,0.0,0.0,0.0,0.0,0.0,0.0,0.0,0.0,0.0
69,4456.413662,3.5078223,1,70,2,2,2,4,41.63461538,n/a,n/a,4418717.0,4422226.0,0.0,0.0,0.0,4420627.0,4419234.0,4421227.0,4419234.0,4420226.0,4421233.0,4422226.0,3509.0,517.0,992.0,993.0,1993.0,-4421233.0,0.0,0.0,0.0,1.0,0.0,0.0,0.0,-0.10384596417968683,9.124598719255147,0.2388457176132789,0.7546140063723894,4420610.0,4420685.0,75.0,367.277821792927,9.242846325829838,10.456147863597774,-0.05583088988561489,384.0,-0.061283033509633884,1.0,-1.1007672203046788,-0.26307644258854074,0.5503836101523394,0.6715372350286407,4421935.0,4421972.0,37.0,147.11624713652733,0.8464065452791204,1.5499780813575552,-0.1436321598611968,0.1298951040705371
70,4459.929868,3.5078115,1,71,2,2,2,1,41.63461538,n/a,n/a,4422233.0,4425742.0,0.0,0.0,0.0,4423692.0,4422750.0,4424743.0,4422750.0,4423143.0,4424749.0,4425742.0,3509.0,517.0,393.0,993.0,1993.0,-4424749.0,0.0,0.0,0.0,1.0,0.0,0.0,0.0,0.006923064278647363,10.630365199860606,0.24576878189192627,0.6334603814960881,4423676.0,4423761.0,85.0,426.55181486228736,10.630513984961489,11.697055421731617,-0.03647778389938158,533.0,-0.04321951508355371,0.0,0.0,0.0,0.0,0.0,0.0,0.0,0.0,0.0,0.0,0.0,0.0,0.0
71,4463.454311,3.5078212,1,72,2,2,1,3,41.63461538,n/a,n/a,4425759.0,4429267.0,0.0,0.0,0.0,4427632.0,4426275.0,4428267.0,4426275.0,4427066.0,4428274.0,4429267.0,3508.0,516.0,791.0,993.0,1992.0,-4428274.0,0.0,0.0,0.0,1.0,0.0,0.0,0.0,-0.4119223245794236,9.17306016920567,0.03461532139322895,0.10730749631901051,4427610.0,4427683.0,73.0,381.08702042992843,9.585258137288852,10.480070815792981,-0.007583819934338375,544.0,0.04129881836960612,0.0,0.0,0.0,0.0,0.0,0.0,0.0,0.0,0.0,0.0,0.0,0.0,0.0
72,4466.970468,3.5078294,1,73,2,2,2,5,41.63461538,n/a,n/a,4429274.0,4432783.0,0.0,0.0,0.0,4431350.0,4429790.0,4431783.0,4429790.0,4430984.0,4431790.0,4432783.0,3509.0,516.0,1194.0,993.0,1993.0,-4431790.0,0.0,0.0,0.0,1.0,0.0,0.0,0.0,0.11423056059765394,10.100750782544205,-0.16961507482682103,0.747690942093746,4431324.0,4431413.0,89.0,379.2278336547787,10.028561036959692,11.24119384895798,-0.09159738692608706,340.0,-0.10953503985149628,0.0,0.0,0.0,0.0,0.0,0.0,0.0,0.0,0.0,0.0,0.0,0.0,0.0
73,4470.486629,3.5078584,1,74,2,1,2,4,41.63461538,n/a,n/a,4432790.0,4436299.0,0.0,0.0,0.0,4434623.0,4433306.0,4435299.0,4433306.0,4434299.0,4435306.0,4436299.0,3509.0,516.0,993.0,993.0,1993.0,-4435306.0,0.0,0.0,0.0,1.0,0.0,0.0,0.0,0.0553845142291671,-10.024597075479102,0.39807619602213284,0.3911531317434855,4434605.0,4434678.0,73.0,577.5983563167338,10.07998396713391,11.30089785679666,3.1409058405109724,306.0,3.082441118973004,0.0,0.0,0.0,0.0,0.0,0.0,0.0,0.0,0.0,0.0,0.0,0.0,0.0
74,4474.002854,3.5077971,1,75,2,1,2,1,41.63461538,n/a,n/a,4436306.0,4439815.0,0.0,0.0,0.0,4437699.0,4436823.0,4438815.0,4436823.0,4437216.0,4438822.0,4439816.0,3509.0,517.0,393.0,994.0,1992.0,-4438822.0,0.0,0.0,0.0,1.0,0.0,0.0,0.0,-0.20769192835937367,-9.550367172391864,0.4880760316445289,0.15230741413020657,4437679.0,4437749.0,70.0,605.3770648033998,9.348706930905742,10.650115121268566,3.1056688782386486,463.0,3.0996523950466455,1.0,-0.2284611211953118,-0.09346136776171972,1.0384596417968683,0.8411523098554617,4438470.0,4438492.0,22.0,34.057950433866274,0.23907136312190772,0.33749494569308824,0.9707461133931495,1.2036224929766783
75,4477.518982,3.5078568,1,76,2,1,1,1,41.63461538,n/a,n/a,4439822.0,4443332.0,0.0,0.0,0.0,4441155.0,4440339.0,4442331.0,4440339.0,4440732.0,4442338.0,4443332.0,3510.0,517.0,393.0,994.0,1992.0,-4442338.0,0.0,0.0,0.0,1.0,0.0,0.0,0.0,-0.21115346049869735,-10.457288592894464,-0.04153838567187631,-0.1903842676627592,4441137.0,4441215.0,78.0,653.702551867767,10.247216219437378,11.883327407071697,3.1270666483347562,405.0,3.0935107557744104,1.0,-0.21115346049869735,-10.457288592894464,-0.04153838567187631,-0.1903842676627592,4441137.0,4441215.0,78.0,653.702551867767,10.247216219437378,11.883327407071697,3.1270666483347562,3.0935107557744104
76,4481.035118,3.5078405,1,77,2,1,2,1,41.63461538,n/a,n/a,4443338.0,4446847.0,0.0,0.0,0.0,4444605.0,4443855.0,4445848.0,4443855.0,4444247.0,4445854.0,4446847.0,3509.0,517.0,392.0,993.0,1993.0,-4445854.0,0.0,0.0,0.0,1.0,0.0,0.0,0.0,-0.33923014965364207,-9.294213794081971,0.3703839389075513,0.1384612855729158,4444587.0,4444639.0,52.0,571.4510928493737,8.957986391433549,10.431021406233516,3.115699717340053,340.0,3.0874747273104832,1.0,-9.287290729803324,-9.15921404064838,0.1349997534335921,0.062307578507810525,4444642.0,4444693.0,51.0,43.82329460982161,0.14726775139293993,0.5397881741422392,0.5162306706117604,-0.2994418827446978
77,4484.551294,3.5078288,1,78,2,1,2,2,41.63461538,n/a,n/a,4446854.0,4450363.0,0.0,0.0,0.0,4448371.0,4447371.0,4449364.0,4447371.0,4447964.0,4449371.0,4450364.0,3509.0,517.0,593.0,993.0,1993.0,-4449371.0,0.0,0.0,0.0,1.0,0.0,0.0,0.0,-0.3115378925390605,-9.633443943735614,0.20423039622005,0.2769225711458316,4448343.0,4448407.0,64.0,507.69269161874706,9.322189473489066,10.46423398592094,-3.1337948168447247,379.0,3.1157876615668245,1.0,-0.3115378925390605,-9.633443943735614,0.20423039622005,0.2769225711458316,4448343.0,4448407.0,64.0,507.69269161874706,9.322189473489066,10.46423398592094,-3.1337948168447247,3.1157876615668245
78,4488.067456,3.5078433,1,79,2,1,1,3,41.63461538,n/a,n/a,4450370.0,4453880.0,0.0,0.0,0.0,4452014.0,4450887.0,4452880.0,4450887.0,4451680.0,4452887.0,4453880.0,3510.0,517.0,793.0,993.0,1993.0,-4452887.0,0.0,0.0,0.0,1.0,0.0,0.0,0.0,-0.38423006746484206,-12.288439094596274,0.18346120338411182,0.017307660696614473,4451991.0,4452038.0,47.0,481.7468167438779,11.905368518503955,11.810168355932989,3.127636014056518,311.0,3.1008408069748095,1.0,1.0592288346328065,0.713075620700517,1.8103813088658742,1.5023049484661353,4452810.0,4452835.0,25.0,52.24251114934971,0.46339302039716035,0.5643996042879257,2.414329965593101,2.4735565917337747
79,4491.583618,3.5078135,1,80,2,2,1,3,41.63461538,n/a,n/a,4453887.0,4457396.0,0.0,0.0,0.0,4455530.0,4454403.0,4456397.0,4454403.0,4455196.0,4456403.0,4457396.0,3509.0,516.0,793.0,993.0,1994.0,-4456403.0,0.0,0.0,0.0,1.0,0.0,0.0,0.0,-0.28038410328515523,9.598828622342385,-0.08999983562239604,-0.16961507482682103,4455509.0,4455592.0,83.0,421.79668304680223,9.879533524641468,10.76036182111494,0.008058690296224953,313.0,0.040544414279559064,0.0,0.0,0.0,0.0,0.0,0.0,0.0,0.0,0.0,0.0,0.0,0.0,0.0
80,4495.099779,3.5078314,1,81,2,2,2,1,41.63461538,n/a,n/a,4457403.0,4460912.0,0.0,0.0,0.0,4458636.0,4457919.0,4459912.0,4457919.0,4458313.0,4459919.0,4460913.0,3509.0,516.0,394.0,994.0,1993.0,-4459919.0,0.0,0.0,0.0,1.0,0.0,0.0,0.0,-0.1107690284583342,10.512673107123632,0.09346136776171972,0.2769225711458316,4458619.0,4458691.0,72.0,485.8454202486722,10.625026156259826,11.690939311224605,-0.017267752405383974,306.0,0.037611883656516465,1.0,-0.1107690284583342,10.512673107123632,0.09346136776171972,0.2769225711458316,4458619.0,4458691.0,72.0,485.8454202486722,10.625026156259826,11.690939311224605,-0.017267752405383974,0.037611883656516465
81,4498.61593,3.5078897,1,82,2,2,1,1,41.63461538,n/a,n/a,4460919.0,4464429.0,0.0,0.0,0.0,4462212.0,4461435.0,4463428.0,4461436.0,4461829.0,4463435.0,4464429.0,3510.0,517.0,393.0,994.0,1993.0,-4463435.0,0.0,0.0,0.0,1.0,0.0,0.0,0.0,-0.22499958905598813,8.788830101740832,0.0692306427864579,0.10384596417968683,4462190.0,4462260.0,70.0,414.9673826698313,9.01389615622265,10.255333299785773,-0.003840226897904343,361.0,0.06180821948335486,0.0,0.0,0.0,0.0,0.0,0.0,0.0,0.0,0.0,0.0,0.0,0.0,0.0
82,4502.132265,3.5078263,1,83,2,2,1,2,41.63461538,n/a,n/a,4464435.0,4467945.0,0.0,0.0,0.0,4465861.0,4464952.0,4466945.0,4464952.0,4465545.0,4466951.0,4467945.0,3510.0,517.0,593.0,994.0,1993.0,-4466951.0,0.0,0.0,0.0,1.0,0.0,0.0,0.0,-0.20769192835937367,8.442676887808542,0.17999967124479208,0.15576894626953025,4465831.0,4465892.0,61.0,417.7397516739946,8.65040275269095,10.14215094227065,0.0028011131220927795,286.0,-0.025600414733089234,1.0,8.480753741341092,8.934214451592387,0.15923047840885393,0.16615354268749735,4465894.0,4465919.0,25.0,36.21306038233484,0.4535135549910455,0.4626166437426442,-0.015265989546774765,-0.234089801305628
83,4505.648312,3.5077828,1,84,2,2,1,3,41.63461538,n/a,n/a,4467951.0,4471460.0,0.0,0.0,0.0,4469568.0,4468468.0,4470461.0,4468468.0,4469261.0,4470468.0,4471460.0,3509.0,517.0,793.0,992.0,1993.0,-4470468.0,0.0,0.0,0.0,1.0,0.0,0.0,0.0,-0.03807685353255263,9.148829444230408,-0.13153822129426843,-0.11423056059765394,4469547.0,4469621.0,74.0,430.47082284631085,9.186922601121418,10.335252158474468,-0.0018839465277220805,286.0,0.04288351543873904,0.0,0.0,0.0,0.0,0.0,0.0,0.0,0.0,0.0,0.0,0.0,0.0,0.0
84,4509.164473,3.5078168,1,85,2,2,2,5,41.63461538,n/a,n/a,4471467.0,4474977.0,0.0,0.0,0.0,4473500.0,4471984.0,4473977.0,4471984.0,4473177.0,4473984.0,4474977.0,3510.0,517.0,1193.0,993.0,1993.0,-4473984.0,0.0,0.0,0.0,1.0,0.0,0.0,0.0,-0.30461482826041314,7.999600773975206,0.079615239204425,0.5503836101523394,4473478.0,4473536.0,58.0,379.40815312282837,8.317548895407736,9.302674903644709,-0.05662967425399967,301.0,-0.0692661102507285,0.0,0.0,0.0,0.0,0.0,0.0,0.0,0.0,0.0,0.0,0.0,0.0,0.0
85,4512.680622,3.5078173,1,86,2,1,1,4,41.63461538,n/a,n/a,4474983.0,4478493.0,0.0,0.0,0.0,4476783.0,4475500.0,4477493.0,4475500.0,4476493.0,4477500.0,4478493.0,3510.0,517.0,993.0,993.0,1993.0,-4477500.0,0.0,0.0,0.0,1.0,0.0,0.0,0.0,-0.11423056059765394,-10.09382771826556,-0.020769192835938154,-0.41538385671874734,4476763.0,4476825.0,62.0,560.1960377464766,9.987396065155558,10.909450053034462,3.1020710997929286,270.0,3.067595017832842,0.0,0.0,0.0,0.0,0.0,0.0,0.0,0.0,0.0,0.0,0.0,0.0,0.0
86,4516.196886,3.5077115,1,87,2,1,2,1,41.63461538,n/a,n/a,4478500.0,4482009.0,0.0,0.0,0.0,4479883.0,4479016.0,4481009.0,4479016.0,4479409.0,4481016.0,4482009.0,3509.0,516.0,393.0,993.0,1993.0,-4481016.0,0.0,0.0,0.0,1.0,0.0,0.0,0.0,-0.15923047840885393,-10.114596911101499,0.24923031403124998,0.26307644258854074,4479860.0,4479957.0,97.0,562.0926135837036,9.955376061428293,11.15774238852137,-3.1402018339024402,451.0,-3.0959721549616224,1.0,-0.15923047840885393,-10.114596911101499,0.24923031403124998,0.26307644258854074,4479860.0,4479957.0,97.0,562.0926135837036,9.955376061428293,11.15774238852137,-3.1402018339024402,-3.0959721549616224
87,4519.712932,3.5078439,1,88,2,1,2,1,41.63461538,n/a,n/a,4482016.0,4485526.0,0.0,0.0,0.0,4483342.0,4482532.0,4484525.0,4482532.0,4482926.0,4484532.0,4485526.0,3510.0,516.0,394.0,994.0,1993.0,-4484532.0,0.0,0.0,0.0,1.0,0.0,0.0,0.0,-0.1903842676627592,-9.67498232940749,0.21461499263802103,0.1730766069661447,4483322.0,4483379.0,57.0,551.0937216330658,9.484689021277195,10.498937112459979,3.137213119546498,396.0,3.1049874349439723,0.0,0.0,0.0,0.0,0.0,0.0,0.0,0.0,0.0,0.0,0.0,0.0,0.0
88,4523.229106,3.5078459,1,89,2,2,1,4,41.63461538,n/a,n/a,4485532.0,4489041.0,0.0,0.0,0.0,4487342.0,4486049.0,4488041.0,4486049.0,4487042.0,4488048.0,4489041.0,3509.0,517.0,993.0,993.0,1992.0,-4488048.0,0.0,0.0,0.0,1.0,0.0,0.0,0.0,-0.33923014965364207,8.999983562239525,-0.11423056059765394,-0.3946146638828092,4487322.0,4487377.0,55.0,434.0309801708017,9.343421643155594,10.490446566286842,0.03001322354056545,280.0,0.041257947882752395,1.0,-0.33923014965364207,8.999983562239525,-0.11423056059765394,-0.3946146638828092,4487322.0,4487377.0,55.0,434.0309801708017,9.343421643155594,10.490446566286842,0.03001322354056545,0.041257947882752395
89,4526.745275,3.5078667,1,90,2,2,1,5,41.63461538,n/a,n/a,4489048.0,4492558.0,0.0,0.0,0.0,4491081.0,4489565.0,4491558.0,4489565.0,4490758.0,4491564.0,4492558.0,3510.0,517.0,1193.0,994.0,1993.0,-4491564.0,0.0,0.0,0.0,1.0,0.0,0.0,0.0,-0.3011532961210934,9.941520304135354,-0.12807668915494866,-0.8515369062734328,4491064.0,4491138.0,74.0,406.8102147185954,10.268191523688264,11.313749190520385,0.07051486257345886,306.0,0.07595058440294006,0.0,0.0,0.0,0.0,0.0,0.0,0.0,0.0,0.0,0.0,0.0,0.0,0.0
90,4530.26143,3.5078113,1,91,2,1,2,5,41.63461538,n/a,n/a,4492564.0,4496073.0,0.0,0.0,0.0,4494531.0,4493081.0,4495074.0,4493081.0,4494274.0,4495080.0,4496074.0,3509.0,517.0,1193.0,994.0,1993.0,-4495080.0,0.0,0.0,0.0,1.0,0.0,0.0,0.0,0.10038443204036315,-10.817287935384044,0.3599993424895802,1.0626903667721281,4494515.0,4494588.0,73.0,621.9941858829935,10.940262547033766,12.289172819997006,-3.0773185947700994,241.0,-3.055293537461604,1.0,-10.796518742548107,-10.73767269617962,1.1873055237877532,1.2773053594101473,4494659.0,4494678.0,19.0,77.88660985368885,0.10753058906776274,0.3672814467041911,-0.9917220574271781,-2.3828548385669452
91,4533.777596,3.5080012,1,92,2,1,1,1,41.63461538,n/a,n/a,4496080.0,4499590.0,0.0,0.0,0.0,4497507.0,4496597.0,4498590.0,4496597.0,4496990.0,4498597.0,4499590.0,3510.0,517.0,393.0,993.0,1993.0,-4498597.0,0.0,0.0,0.0,1.0,0.0,0.0,0.0,-0.0692306427864579,-10.052289332593684,-0.048461449950519736,0.6334603814960881,4497485.0,4497549.0,64.0,562.9227767091481,10.006321911088962,11.233474476191809,-3.073390692339991,495.0,-3.07035105194081,0.0,0.0,0.0,0.0,0.0,0.0,0.0,0.0,0.0,0.0,0.0,0.0,0.0
92,4537.293769,3.5077837,1,93,2,2,2,2,41.63461538,n/a,n/a,4499596.0,4503106.0,0.0,0.0,0.0,4501073.0,4500113.0,4502106.0,4500113.0,4500706.0,4502113.0,4503106.0,3510.0,517.0,593.0,993.0,1993.0,-4502113.0,0.0,0.0,0.0,1.0,0.0,0.0,0.0,-0.15923047840885393,10.007289414782484,0.17999967124479208,0.38769159960416577,4501048.0,4501135.0,87.0,457.9445525824488,10.168641142048472,11.497101081531119,-0.02042616792685097,342.0,-0.03794502005530731,1.0,10.028058607618426,-33.26532385889301,0.27346103900650787,18.726888873736858,4501515.0,4501586.0,71.0,18328.755475725146,47.06215001721916,55.48746975402572,-2.738671079740647,-2.5654423466253675
93,4540.80991,3.5078411,1,94,2,1,1,4,41.63461538,n/a,n/a,4503113.0,4506622.0,0.0,0.0,0.0,4504922.0,4503629.0,4505622.0,4503629.0,4504622.0,4505629.0,4506623.0,3509.0,516.0,993.0,994.0,1993.0,-4505629.0,0.0,0.0,0.0,1.0,0.0,0.0,0.0,-0.2284611211953118,-10.730749631900972,0.16961507482682103,-0.09346136776171972,4504898.0,4504977.0,79.0,591.9447686239083,10.505582952732569,11.332583081819312,3.11654845122886,276.0,3.093007066230728,1.0,-10.730749631900972,-10.232289003838476,-0.10730749631901051,-0.2423072497526026,4504979.0,4504998.0,19.0,44.959219007728706,0.5164183683367475,0.46550851005331567,0.26448838254923146,-0.2864710808030482
94,4544.326078,3.5911499,1,95,2,2,1,2,41.63461538,n/a,n/a,4506629.0,4510222.0,0.0,0.0,0.0,4508195.0,4507229.0,4509222.0,4507229.0,4507822.0,4509229.0,4510222.0,3593.0,600.0,593.0,993.0,1993.0,-4509229.0,0.0,0.0,0.0,1.0,0.0,0.0,0.0,-0.5019221602018197,8.66767647686453,0.3115378925390605,0.328845553235675,4508176.0,4508247.0,71.0,445.0795435147002,9.169614971197419,10.189557119228352,-0.0018875024772452191,354.0,0.042476984709011754,0.0,0.0,0.0,0.0,0.0,0.0,0.0,0.0,0.0,0.0,0.0,0.0,0.0
95,4547.925691,3.5076985,1,96,2,2,1,5,41.63461538,n/a,n/a,4510228.0,4513738.0,0.0,0.0,0.0,4512228.0,4510745.0,4512737.0,4510745.0,4511938.0,4512745.0,4513738.0,3510.0,517.0,1193.0,993.0,1992.0,-4512745.0,0.0,0.0,0.0,1.0,0.0,0.0,0.0,-0.4430761138333289,9.591905558063738,0.2007688640807263,-0.4257684531367144,4512208.0,4512282.0,74.0,408.2085148632651,10.054521677592428,11.277858703347322,0.06235438392496277,270.0,0.08604701490087935,1.0,9.560751768809835,-33.26532385889301,-1.495381884187492,18.726888873736858,4512671.0,4512700.0,29.0,19094.115323102753,47.360458066582574,57.424193814312915,-2.7004352034076318,-2.5946291906583028
96,4551.441856,3.507707,1,97,2,1,2,5,41.63461538,n/a,n/a,4513745.0,4517254.0,0.0,0.0,0.0,4515727.0,4514261.0,4516254.0,4514261.0,4515454.0,4516261.0,4517254.0,3509.0,516.0,1193.0,993.0,1993.0,-4516261.0,0.0,0.0,0.0,1.0,0.0,0.0,0.0,0.020769192835938154,-10.99036454235019,0.578075867266925,1.0626903667721281,4515710.0,4515783.0,73.0,563.2393124856417,11.02179283725133,11.8466243193865,-3.0976097199962767,256.0,-3.067599653468195,1.0,-8.906522194477805,-8.858060744527286,1.2149977809023367,0.9242290811992143,4516298.0,4516317.0,19.0,51.900541384035726,0.29477949192294783,0.38429243235203414,1.4056476493802719,0.9453112865556675
97,4554.957887,3.507828,1,98,2,2,2,4,41.63461538,n/a,n/a,4517260.0,4520770.0,0.0,0.0,0.0,4519186.0,4517777.0,4519770.0,4517777.0,4518770.0,4519777.0,4520770.0,3510.0,517.0,993.0,993.0,1993.0,-4519777.0,0.0,0.0,0.0,1.0,0.0,0.0,0.0,-0.1349997534335921,8.491138337759057,0.2699995068671842,0.713075620700517,4519158.0,4519233.0,75.0,461.59819141399083,8.637509757503862,9.828459571792495,-0.051319265839259436,388.0,-0.07190969295698976,0.0,0.0,0.0,0.0,0.0,0.0,0.0,0.0,0.0,0.0,0.0,0.0,0.0
98,4558.474049,3.5078465,1,99,2,2,1,5,41.63461538,n/a,n/a,4520777.0,4524286.0,0.0,0.0,0.0,4522803.0,4521293.0,4523286.0,4521293.0,4522487.0,4523293.0,4524286.0,3509.0,516.0,1194.0,993.0,1993.0,-4523293.0,0.0,0.0,0.0,1.0,0.0,0.0,0.0,-0.1349997534335921,9.083060333583278,0.38769159960416577,-0.22153805691666445,4522781.0,4522844.0,63.0,389.38176534092435,9.238170410976295,10.409101114944955,0.06599489796788102,294.0,0.0818984819068455,0.0,0.0,0.0,0.0,0.0,0.0,0.0,0.0,0.0,0.0,0.0,0.0,0.0
99,4561.990227,3.5077999,1,100,2,2,2,2,41.63461538,n/a,n/a,4524293.0,4527802.0,0.0,0.0,0.0,4525893.0,4524809.0,4526803.0,4524809.0,4525402.0,4526809.0,4527802.0,3509.0,516.0,593.0,993.0,1994.0,-4526809.0,0.0,0.0,0.0,1.0,0.0,0.0,0.0,-0.15923047840885393,9.429213547515568,0.38423006746484206,0.5573066744309868,4525871.0,4525944.0,73.0,375.33998812874637,9.59000596194625,10.707154565474227,-0.018048581477931126,469.0,-0.05790152771709517,0.0,0.0,0.0,0.0,0.0,0.0,0.0,0.0,0.0,0.0,0.0,0.0,0.0
100,4593.660657,3.5245012,2,1,2,1,2,1,41.63461538,n/a,n/a,4555965.0,4559489.0,0.0,0.0,0.0,4557231.0,4556488.0,4558489.0,4556488.0,4556888.0,4558496.0,4559490.0,3524.0,523.0,400.0,994.0,2001.0,-4558496.0,0.0,0.0,0.0,1.0,0.0,0.0,0.0,0.3426916817929658,-9.176521701344994,0.5399990137343723,-0.1488458819908829,4557211.0,4557284.0,73.0,591.4632606489361,9.544104500898948,11.472142636613706,3.0693549324770664,323.0,3.0594286690598973,1.0,-9.186906297762961,-8.840753083830672,-0.1107690284583342,-0.05192298208984342,4557286.0,4557306.0,20.0,42.15085637849448,0.3511195020058782,0.3624043960576469,-0.16839015714753433,-0.30060567004239747
101,4597.193478,3.50783,2,2,2,2,2,5,41.63461538,n/a,n/a,4559496.0,4563005.0,0.0,0.0,0.0,4561472.0,4560013.0,4562006.0,4560013.0,4561205.0,4562012.0,4563005.0,3509.0,517.0,1192.0,993.0,1993.0,-4562012.0,0.0,0.0,0.0,1.0,0.0,0.0,0.0,0.10384596417968683,8.882291469502544,0.28038410328515523,0.5988450601028592,4561448.0,4561518.0,70.0,404.0308129202948,8.78422010601626,10.138672226392575,-0.03626170052432979,243.0,-0.03653992990194058,0.0,0.0,0.0,0.0,0.0,0.0,0.0,0.0,0.0,0.0,0.0,0.0,0.0
102,4600.709628,3.5078629,2,3,2,2,2,4,41.63461538,n/a,n/a,4563012.0,4566522.0,0.0,0.0,0.0,4564862.0,4563529.0,4565522.0,4563529.0,4564522.0,4565528.0,4566522.0,3510.0,517.0,993.0,994.0,1993.0,-4565528.0,0.0,0.0,0.0,1.0,0.0,0.0,0.0,-0.1211536248763013,9.231906215574162,0.27346103900650787,0.7096140885611933,4564839.0,4564925.0,86.0,415.2764712392775,9.36322368961049,10.26654952956311,-0.04659836701232093,317.0,-0.05127170315654368,1.0,-0.9588444025924433,-33.26532385889301,0.19730733194140657,18.726888873736858,4566122.0,4566158.0,36.0,12565.783993113957,37.24317396482767,42.85357453628155,-2.620844105936245,-2.4794797239660507
103,4604.22586,3.507799,2,4,2,2,2,4,41.63461538,n/a,n/a,4566528.0,4570038.0,0.0,0.0,0.0,4568405.0,4567045.0,4569037.0,4567045.0,4568038.0,4569044.0,4570038.0,3510.0,517.0,993.0,994.0,1992.0,-4569044.0,0.0,0.0,0.0,1.0,0.0,0.0,0.0,-0.03461532139322895,8.36306164860411,0.5123067566197868,0.9449982740351486,4568385.0,4568449.0,64.0,370.56272361232186,8.40881682769145,9.186717176690419,-0.05147961975151009,347.0,-0.04711712008610742,1.0,-0.03461532139322895,8.36306164860411,0.5123067566197868,0.9449982740351486,4568385.0,4568449.0,64.0,370.56272361232186,8.40881682769145,9.186717176690419,-0.05147961975151009,-0.04711712008610742
104,4607.741968,3.516185,2,5,2,1,1,5,41.63461538,n/a,n/a,4570045.0,4573562.0,0.0,0.0,0.0,4572005.0,4570570.0,4572563.0,4570572.0,4571761.0,4572569.0,4573563.0,3517.0,527.0,1189.0,994.0,1993.0,-4572569.0,0.0,0.0,0.0,1.0,0.0,0.0,0.0,0.03461532139322895,-10.003827882643165,0.38769159960416577,-0.328845553235675,4571982.0,4572066.0,84.0,601.8444352284785,10.06398367705673,10.875965420797284,3.0703342000035225,221.0,3.066090106949022,0.0,0.0,0.0,0.0,0.0,0.0,0.0,0.0,0.0,0.0,0.0,0.0,0.0
105,4611.266476,3.5078088,2,6,2,2,2,1,41.63461538,n/a,n/a,4573569.0,4577079.0,0.0,0.0,0.0,4575012.0,4574085.0,4576078.0,4574086.0,4574479.0,4576085.0,4577080.0,3510.0,517.0,393.0,995.0,1993.0,-4576085.0,0.0,0.0,0.0,1.0,0.0,0.0,0.0,0.1626920105481776,10.654595924835867,0.2596149104492171,0.4569222423906236,4574980.0,4575060.0,80.0,478.9026204986598,10.493758999037627,12.07466563778421,-0.01880345826817317,501.0,0.0493284925812939,1.0,-0.2526918461705697,-0.2388457176132789,0.9138444847812434,0.7096140885611933,4575657.0,4575679.0,22.0,34.03839937000899,0.20469921840647956,0.19375305800594442,1.5031033041009316,1.2433961149946817
106,4614.782861,3.507612,2,7,2,2,2,3,41.63461538,n/a,n/a,4577085.0,4580594.0,0.0,0.0,0.0,4578745.0,4577601.0,4579594.0,4577602.0,4578395.0,4579601.0,4580594.0,3509.0,517.0,793.0,993.0,1993.0,-4579601.0,0.0,0.0,0.0,1.0,0.0,0.0,0.0,-0.15923047840885393,7.9026778740741666,0.4846144995052052,0.20423039622005,4578726.0,4578797.0,71.0,343.86149730300906,8.066782600839725,9.076778857848142,0.03476486272523101,331.0,0.06869905857186662,1.0,7.9026778740741666,8.058446820343697,0.21115346049869735,0.22153805691666445,4578801.0,4578821.0,20.0,18.24387625689233,0.15611471572111277,0.1610263676619076,-0.06656816377581375,0.4444192099010947
107,4618.29891,3.5077414,2,8,2,1,1,2,41.63461538,n/a,n/a,4580601.0,4584110.0,0.0,0.0,0.0,4582001.0,4581118.0,4583111.0,4581118.0,4581710.0,4583117.0,4584110.0,3509.0,517.0,592.0,993.0,1993.0,-4583117.0,0.0,0.0,0.0,1.0,0.0,0.0,0.0,-0.2561533783098934,-10.557673024934829,0.21461499263802103,0.31846095681770786,4581985.0,4582060.0,75.0,558.546632945816,10.302043050486438,11.305370856174946,-3.1315123498707456,275.0,-3.0987136503009918,0.0,0.0,0.0,0.0,0.0,0.0,0.0,0.0,0.0,0.0,0.0,0.0,0.0
108,4621.814969,3.5078834,2,9,2,1,1,1,41.63461538,n/a,n/a,4584117.0,4587626.0,0.0,0.0,0.0,4585317.0,4584634.0,4586627.0,4584634.0,4585027.0,4586634.0,4587627.0,3509.0,517.0,393.0,993.0,1993.0,-4586634.0,0.0,0.0,0.0,1.0,0.0,0.0,0.0,-0.10038443204036315,-10.952287688817638,0.46730683880859075,0.5607682065703105,4585294.0,4585362.0,68.0,603.4739491292722,10.85230571453445,11.80893965161871,-3.132980426329004,267.0,3.0964355794061715,1.0,-0.10038443204036315,-10.952287688817638,0.46730683880859075,0.5607682065703105,4585294.0,4585362.0,68.0,603.4739491292722,10.85230571453445,11.80893965161871,-3.132980426329004,3.0964355794061715
109,4625.331249,3.5077451,2,10,2,1,1,5,41.63461538,n/a,n/a,4587634.0,4591143.0,0.0,0.0,0.0,4589627.0,4588150.0,4590143.0,4588150.0,4589343.0,4590150.0,4591143.0,3509.0,516.0,1193.0,993.0,1993.0,-4590150.0,0.0,0.0,0.0,1.0,0.0,0.0,0.0,-0.0034615321393236813,-10.04536626831504,0.4603837745299434,-0.5399990137343723,4589602.0,4589676.0,74.0,566.3849508207111,10.091611192147852,11.042214278611088,3.042299440515784,259.0,3.0114441162742414,0.0,0.0,0.0,0.0,0.0,0.0,0.0,0.0,0.0,0.0,0.0,0.0,0.0
110,4628.847309,3.5078183,2,11,2,2,2,5,41.63461538,n/a,n/a,4591149.0,4594659.0,0.0,0.0,0.0,4593133.0,4591666.0,4593659.0,4591666.0,4592859.0,4593666.0,4594659.0,3510.0,517.0,1193.0,993.0,1993.0,-4593666.0,0.0,0.0,0.0,1.0,0.0,0.0,0.0,-0.1107690284583342,8.9203683230351,0.27346103900650787,0.8757676312486907,4593114.0,4593183.0,69.0,400.52268711272797,9.051199649361306,10.267892203179091,-0.06659360324260698,255.0,-0.06511053692933809,0.0,0.0,0.0,0.0,0.0,0.0,0.0,0.0,0.0,0.0,0.0,0.0,0.0
111,4632.363596,3.5076958,2,12,2,1,2,5,41.63461538,n/a,n/a,4594666.0,4598175.0,0.0,0.0,0.0,4596708.0,4595182.0,4597175.0,4595182.0,4596375.0,4597182.0,4598176.0,3509.0,516.0,1193.0,994.0,1993.0,-4597182.0,0.0,0.0,0.0,1.0,0.0,0.0,0.0,-0.2976917639817697,-10.723826567622325,0.3011532961210934,0.8688445669700473,4596692.0,4596753.0,61.0,539.4915029967863,10.441578440192028,11.616502683180865,-3.0871974947150314,317.0,-3.087631362624414,1.0,-12.544592472906169,-11.976901202057215,0.6853833635859315,0.7303832813971315,4597007.0,4597028.0,21.0,67.22317596219719,0.5694720112535075,0.5611099821355265,-0.07910288937890882,-0.16109190453758188
112,4635.879626,3.6828021,2,13,2,1,1,2,41.63461538,n/a,n/a,4598182.0,4601867.0,0.0,0.0,0.0,4599932.0,4598875.0,4600866.0,4598875.0,4599465.0,4600873.0,4601867.0,3685.0,693.0,590.0,994.0,1991.0,-4600873.0,0.0,0.0,0.0,1.0,0.0,0.0,0.0,-0.08999983562239604,-11.211902599266853,0.07269217492578157,-0.3530762782109368,4599917.0,4599957.0,40.0,542.1059694627045,11.13004940957805,11.099601302643363,3.1033293585786965,452.0,3.094484229127249,1.0,-11.180748810012949,-10.201135214584571,-0.3599993424895802,-0.2388457176132789,4599959.0,4600004.0,45.0,109.31264194272545,0.9870769965756372,1.0640932217683827,-0.12305008010691904,0.30734825810243604
113,4639.570762,3.5078298,2,14,2,2,2,2,41.63461538,n/a,n/a,4601873.0,4605382.0,0.0,0.0,0.0,4603323.0,4602390.0,4604382.0,4602390.0,4602983.0,4604389.0,4605382.0,3509.0,517.0,593.0,993.0,1992.0,-4604389.0,0.0,0.0,0.0,1.0,0.0,0.0,0.0,-0.1384612855729158,10.633826731999934,0.28730716756379865,-0.10384596417968683,4603306.0,4603380.0,74.0,451.80325080227146,10.779387269507312,12.31504215649124,0.036295107978330333,323.0,0.06131420617408156,1.0,-33.26532385889301,0.07269217492578157,18.726888873736858,0.39807619602213284,4603988.0,4604053.0,65.0,11216.772234290596,38.04429901109909,42.79339543878878,0.5026797764127433,0.6745514501908026
114,4643.087018,3.5077363,2,15,2,1,1,5,41.63461538,n/a,n/a,4605389.0,4608898.0,0.0,0.0,0.0,4607373.0,4605906.0,4607899.0,4605906.0,4607099.0,4607905.0,4608898.0,3509.0,517.0,1193.0,993.0,1993.0,-4607905.0,0.0,0.0,0.0,1.0,0.0,0.0,0.0,0.17999967124479208,-8.619215026914008,0.2007688640807263,-0.4361530495546855,4607344.0,4607425.0,81.0,525.6785452040735,8.822236044697673,10.175878929603716,3.0693347250406187,245.0,3.04859214855069,1.0,-1.914227273045559,-1.4434589020976485,0.18346120338411182,0.07615370706510526,4608087.0,4608106.0,19.0,74.50339825244573,0.48284340924486385,0.5838918322739969,0.22411212695274693,0.6126686525717949
115,4646.603088,3.5078398,2,16,2,1,1,2,41.63461538,n/a,n/a,4608905.0,4612414.0,0.0,0.0,0.0,4610465.0,4609422.0,4611415.0,4609422.0,4610015.0,4611421.0,4612415.0,3509.0,517.0,593.0,994.0,1993.0,-4611421.0,0.0,0.0,0.0,1.0,0.0,0.0,0.0,-0.18346120338411182,-10.280750453788997,0.10038443204036315,-0.11769209273697762,4610448.0,4610514.0,66.0,627.0056920785165,10.09964393317908,11.210902782129397,3.1199984790201385,433.0,3.093715821433021,1.0,-10.263442793092382,-9.938058771996031,-0.1730766069661447,-0.08999983562239604,4610529.0,4610548.0,19.0,39.811799977084455,0.3358221420956818,0.32950076973192893,-0.24997862146082078,0.3317170018028515
116,4650.11925,3.5078446,2,17,2,2,1,3,41.63461538,n/a,n/a,4612421.0,4615931.0,0.0,0.0,0.0,4614081.0,4612938.0,4614931.0,4612938.0,4613731.0,4614938.0,4615931.0,3510.0,517.0,793.0,993.0,1993.0,-4614938.0,0.0,0.0,0.0,1.0,0.0,0.0,0.0,-0.34961474607161314,8.88921453378119,0.06576911064713421,-0.21461499263802103,4614059.0,4614130.0,71.0,435.5795661259769,9.243082911433854,10.233441221652901,0.0303391329988956,328.0,0.05414756040560225,1.0,7.989216177557239,-33.26532385889301,-0.7165371528398408,18.726888873736858,4614610.0,4614630.0,20.0,18557.84056063184,45.60684037806212,56.00573235157252,-2.701164311656751,-2.6169038603071257
117,4653.635416,3.507834,2,18,2,1,1,4,41.63461538,n/a,n/a,4615937.0,4619447.0,0.0,0.0,0.0,4617720.0,4616454.0,4618447.0,4616454.0,4617447.0,4618454.0,4619447.0,3510.0,517.0,993.0,993.0,1993.0,-4618454.0,0.0,0.0,0.0,1.0,0.0,0.0,0.0,0.12807668915494866,-9.685366925825457,0.1626920105481776,-0.048461449950519736,4617703.0,4617766.0,63.0,550.5628863842018,9.815715020734876,10.913920449166781,3.120079218360255,256.0,3.0857422834747132,0.0,0.0,0.0,0.0,0.0,0.0,0.0,0.0,0.0,0.0,0.0,0.0,0.0
118,4657.151576,3.5078474,2,19,2,2,2,2,41.63461538,n/a,n/a,4619454.0,4622963.0,0.0,0.0,0.0,4621030.0,4619970.0,4621963.0,4619970.0,4620564.0,4621970.0,4622964.0,3509.0,516.0,594.0,994.0,1993.0,-4621970.0,0.0,0.0,0.0,1.0,0.0,0.0,0.0,-0.06576911064713421,10.07998158970827,-0.03807685353255263,0.11423056059765394,4621008.0,4621093.0,85.0,390.1085120752294,10.146893850935921,11.278707040864887,-0.015010813780476735,444.0,0.028239343949335513,1.0,-0.06576911064713421,10.07998158970827,-0.03807685353255263,0.11423056059765394,4621008.0,4621093.0,85.0,390.1085120752294,10.146893850935921,11.278707040864887,-0.015010813780476735,0.028239343949335513
119,4660.667754,3.5078179,2,20,2,1,2,1,41.63461538,n/a,n/a,4622970.0,4626479.0,0.0,0.0,0.0,4624280.0,4623486.0,4625479.0,4623486.0,4623880.0,4625486.0,4626479.0,3509.0,516.0,394.0,993.0,1993.0,-4625486.0,0.0,0.0,0.0,1.0,0.0,0.0,0.0,-0.2561533783098934,-9.356521372589782,0.079615239204425,-0.048461449950519736,4624264.0,4624324.0,60.0,530.6443968015589,9.101269212017556,10.188133556658634,3.1275197903692384,384.0,3.087884572363841,1.0,-0.2561533783098934,-9.356521372589782,0.079615239204425,-0.048461449950519736,4624264.0,4624324.0,60.0,530.6443968015589,9.101269212017556,10.188133556658634,3.1275197903692384,3.087884572363841
120,4664.184015,3.5077069,2,21,2,2,1,5,41.63461538,n/a,n/a,4626486.0,4629995.0,0.0,0.0,0.0,4628596.0,4627002.0,4628995.0,4627002.0,4628196.0,4629002.0,4629995.0,3509.0,516.0,1194.0,993.0,1993.0,-4629002.0,0.0,0.0,0.0,1.0,0.0,0.0,0.0,-0.34961474607161314,9.730366843636652,0.03461532139322895,-0.9069214205025999,4628570.0,4628644.0,74.0,454.2413785830824,10.123858962134813,11.011324710861164,0.09313635563982534,374.0,0.1305157214068964,1.0,-0.31499942467838415,-1.325766809360667,0.20769192835937367,-0.19384579980208289,4629762.0,4629816.0,54.0,170.2584765737796,1.087604364221901,1.684233709577168,2.7634503382671904,2.791241317695499
121,4667.700055,3.5078471,2,22,2,2,1,5,41.63461538,n/a,n/a,4630002.0,4633511.0,0.0,0.0,0.0,4632202.0,4630519.0,4632512.0,4630519.0,4631712.0,4632519.0,4633511.0,3509.0,517.0,1193.0,992.0,1993.0,-4632519.0,0.0,0.0,0.0,1.0,0.0,0.0,0.0,-0.1730766069661447,9.723443779358014,0.017307660696614473,-0.8619215026913999,4632186.0,4632247.0,61.0,434.4533120474868,9.935499971248637,11.079157480045057,0.08860961092022697,474.0,0.113658971810308,1.0,8.633061155471301,-33.26532385889301,-1.6373047018997275,18.726888873736858,4632742.0,4632762.0,20.0,18172.12261088241,46.58513761703304,55.0012910881975,-2.689177166678314,-2.57460760876013
122,4671.216232,3.624493,2,23,2,2,2,3,41.63461538,n/a,n/a,4633518.0,4637145.0,0.0,0.0,0.0,4635485.0,4634151.0,4636144.0,4634151.0,4634945.0,4636151.0,4637145.0,3627.0,633.0,794.0,994.0,1993.0,-4636151.0,0.0,0.0,0.0,1.0,0.0,0.0,0.0,0.1488458819908829,9.958827964831968,0.1384612855729158,0.7961523920442657,4635464.0,4635534.0,70.0,466.9708924553978,9.832004172964668,11.067250701401441,-0.06694287101823995,519.0,-0.0716862948507338,0.0,0.0,0.0,0.0,0.0,0.0,0.0,0.0,0.0,0.0,0.0,0.0,0.0
123,4674.84903,3.508075869,2,24,2,1,2,3,41.63461538,n/a,n/a,4637151.0,4640661.0,0.0,0.0,0.0,4638767.0,4637668.0,4639660.0,4637668.0,4638461.0,4639667.0,4640661.0,3510.0,517.0,793.0,994.0,1992.0,-4639667.0,0.0,0.0,0.0,1.0,0.0,0.0,0.0,-0.3773070031861947,-10.543826896377537,0.2007688640807263,0.5711528029882775,4638755.0,4638813.0,58.0,580.4480684021487,10.173264520342327,11.248051480465769,-3.1051770259680542,294.0,-3.0837042587322663,1.0,-1.6407662340390512,-1.585381719809884,-0.0692306427864579,-0.328845553235675,4639407.0,4639436.0,29.0,35.14965782898547,0.2654568630567984,0.2809177824449877,1.360613740132724,1.1788488013263814
124,4678.365351,3.5243533,2,25,2,1,1,3,41.63461538,n/a,n/a,4640667.0,4644193.0,0.0,0.0,0.0,4642500.0,4641200.0,4643194.0,4641200.0,4641993.0,4643200.0,4644193.0,3526.0,533.0,793.0,993.0,1994.0,-4643200.0,0.0,0.0,0.0,1.0,0.0,0.0,0.0,-0.3530762782109368,-9.951904900553322,-0.27346103900650787,-0.10038443204036315,4642486.0,4642550.0,64.0,576.0343226645602,9.600388868841632,10.531528216151182,-3.1235635939313973,493.0,3.1014825984002083,1.0,-9.969212561249936,-9.58152096164577,-0.08999983562239604,-0.29076869970312236,4642552.0,4642584.0,32.0,31.47795681346283,0.4365923879179548,0.4418032541788247,0.47783105499211,0.5162306706117439
125,4681.898151,3.5077167,2,26,2,1,1,4,41.63461538,n/a,n/a,4644200.0,4647709.0,0.0,0.0,0.0,4645993.0,4644717.0,4646710.0,4644717.0,4645709.0,4646716.0,4647709.0,3509.0,517.0,992.0,993.0,1993.0,-4646716.0,0.0,0.0,0.0,1.0,0.0,0.0,0.0,0.21461499263802103,-8.934214451592391,0.34961474607161314,0.07269217492578157,4645972.0,4646038.0,66.0,570.1157328149503,9.15301951871771,9.9507255017184,3.1113332583258115,263.0,3.0911304795729375,0.0,0.0,0.0,0.0,0.0,0.0,0.0,0.0,0.0,0.0,0.0,0.0,0.0
126,4685.414196,3.5078552,2,27,2,1,1,3,41.63461538,n/a,n/a,4647716.0,4651226.0,0.0,0.0,0.0,4649399.0,4648233.0,4650225.0,4648233.0,4649026.0,4650232.0,4651226.0,3510.0,517.0,793.0,994.0,1992.0,-4650232.0,0.0,0.0,0.0,1.0,0.0,0.0,0.0,0.05192298208984342,-10.017674011200455,-0.04153838567187631,-0.048461449950519736,4649372.0,4649441.0,69.0,506.0671725479996,10.069599373167733,10.756308848072655,3.1409051322130743,346.0,3.088468338352872,0.0,0.0,0.0,0.0,0.0,0.0,0.0,0.0,0.0,0.0,0.0,0.0,0.0
127,4688.93054,3.5076456,2,28,2,2,2,1,41.63461538,n/a,n/a,4651233.0,4654742.0,0.0,0.0,0.0,4652625.0,4651749.0,4653743.0,4651749.0,4652142.0,4653749.0,4654742.0,3509.0,516.0,393.0,993.0,1994.0,-4653749.0,0.0,0.0,0.0,1.0,0.0,0.0,0.0,-0.18346120338411182,10.024597075479099,-0.1211536248763013,-0.044999917811196055,4652600.0,4652672.0,72.0,469.22526214172547,10.208342334177841,11.302735186290978,-0.007460017594041352,458.0,0.027566544550742242,1.0,-2.457687818919255,-2.2153805691666526,0.05192298208984342,-0.2284611211953118,4653259.0,4653282.0,23.0,38.787012960051534,0.37057799267858677,0.3829649933860274,0.8581173919507037,0.8621700546672219
128,4692.446524,3.5078313,2,29,2,1,1,1,41.63461538,n/a,n/a,4654748.0,4658257.0,0.0,0.0,0.0,4656015.0,4655265.0,4657258.0,4655265.0,4655659.0,4657265.0,4658258.0,3509.0,517.0,394.0,993.0,1993.0,-4657265.0,0.0,0.0,0.0,1.0,0.0,0.0,0.0,-0.3773070031861947,-11.997670394893152,0.10038443204036315,-0.0034615321393236813,4655996.0,4656035.0,39.0,586.5626103668412,11.620827394794214,11.635897937451482,3.1326563409836217,337.0,3.1118395315711282,1.0,-11.99420886275383,-11.15997961717701,-0.024230724975261835,0.23538418547395523,4656037.0,4656057.0,20.0,123.37231628163791,0.8736923576999072,1.0033966086499782,-0.3017031152025693,0.26171350240120506
129,4695.96283,3.5077317,2,30,2,1,2,2,41.63461538,n/a,n/a,4658265.0,4661774.0,0.0,0.0,0.0,4659791.0,4658781.0,4660774.0,4658781.0,4659374.0,4660781.0,4661774.0,3509.0,516.0,593.0,993.0,1993.0,-4660781.0,0.0,0.0,0.0,1.0,0.0,0.0,0.0,-0.41538385671874734,-10.568057621352795,0.1903842676627592,0.33576861751432235,4659773.0,4659839.0,66.0,550.9608342288932,10.15371464934239,11.003640085859518,-3.1272738231922106,399.0,3.1076114050249943,1.0,2.866148611359355,2.447303222501288,0.7511524742330696,0.418845388858071,4660451.0,4660476.0,25.0,48.694406092756836,0.5346582635273601,0.5953935904719366,2.4708961786965578,2.4922776568146645
130,4699.478863,3.5078246,2,31,2,1,2,2,41.63461538,n/a,n/a,4661781.0,4665290.0,0.0,0.0,0.0,4663297.0,4662297.0,4664290.0,4662297.0,4662891.0,4664297.0,4665290.0,3509.0,516.0,594.0,993.0,1993.0,-4664297.0,0.0,0.0,0.0,1.0,0.0,0.0,0.0,-0.17999967124479208,-9.764982165029886,0.31846095681770786,0.2976917639817697,4663280.0,4663356.0,76.0,625.1710829659082,9.58500499559274,10.944522198387508,3.1394258097437935,389.0,3.0998315723587213,1.0,-0.17999967124479208,-9.764982165029886,0.31846095681770786,0.2976917639817697,4663280.0,4663356.0,76.0,625.1710829659082,9.58500499559274,10.944522198387508,3.1394258097437935,3.0998315723587213
131,4702.994979,3.5078337,2,32,2,1,1,1,41.63461538,n/a,n/a,4665297.0,4668806.0,0.0,0.0,0.0,4666606.0,4665813.0,4667807.0,4665813.0,4666206.0,4667813.0,4668806.0,3509.0,516.0,393.0,993.0,1994.0,-4667813.0,0.0,0.0,0.0,1.0,0.0,0.0,0.0,-0.062307578507810525,-11.218825663545502,0.28730716756379865,0.6749987671679644,4666592.0,4666658.0,66.0,610.5154476758632,11.163252239297323,12.160218543590545,-3.1068563986411593,386.0,-3.078641144814385,0.0,0.0,0.0,0.0,0.0,0.0,0.0,0.0,0.0,0.0,0.0,0.0,0.0
132,4706.511134,3.5078433,2,33,2,2,2,1,41.63461538,n/a,n/a,4668813.0,4672323.0,0.0,0.0,0.0,4670106.0,4669330.0,4671322.0,4669330.0,4669723.0,4671329.0,4672323.0,3510.0,517.0,393.0,994.0,1992.0,-4671329.0,0.0,0.0,0.0,1.0,0.0,0.0,0.0,-0.2284611211953118,10.131904571798113,0.10384596417968683,-0.0034615321393236813,4670078.0,4670167.0,89.0,473.09857253526866,10.360921396831529,11.45330180157345,0.010357130482404811,355.0,0.05352026845931526,0.0,0.0,0.0,0.0,0.0,0.0,0.0,0.0,0.0,0.0,0.0,0.0,0.0
133,4710.027295,3.5078245,2,34,2,2,2,1,41.63461538,n/a,n/a,4672329.0,4675838.0,0.0,0.0,0.0,4673605.0,4672846.0,4674838.0,4672846.0,4673239.0,4674845.0,4675838.0,3509.0,517.0,393.0,993.0,1992.0,-4674845.0,0.0,0.0,0.0,1.0,0.0,0.0,0.0,-0.1903842676627592,10.374211821550716,0.1730766069661447,-0.05884604636849078,4673579.0,4673650.0,71.0,454.53913818397564,10.567141460459135,11.892310165865723,0.021949292297646923,340.0,-0.05154276580777533,1.0,23.026111790775897,22.825342926695168,2.1011500085689967,1.8934580802096228,4674456.0,4674493.0,37.0,41.57442766188517,0.2888668791846867,0.47386339491918683,2.3392469603859363,2.7040828814723423
134,4713.54349,3.5078235,2,35,2,1,1,1,41.63461538,n/a,n/a,4675845.0,4679354.0,0.0,0.0,0.0,4677088.0,4676362.0,4678355.0,4676362.0,4676755.0,4678361.0,4679354.0,3509.0,517.0,393.0,993.0,1993.0,-4678361.0,0.0,0.0,0.0,1.0,0.0,0.0,0.0,-0.28038410328515523,-11.222287195684824,0.1349997534335921,0.3911531317434855,4677068.0,4677127.0,59.0,642.2396399621049,10.94490099711665,12.197953023854911,-3.118186615609635,313.0,-3.089069252510356,1.0,-0.28038410328515523,-11.222287195684824,0.1349997534335921,0.3911531317434855,4677068.0,4677127.0,59.0,642.2396399621049,10.94490099711665,12.197953023854911,-3.118186615609635,-3.089069252510356
135,4717.059645,3.5077934,2,36,2,2,1,1,41.63461538,n/a,n/a,4679361.0,4682870.0,0.0,0.0,0.0,4680661.0,4679878.0,4681871.0,4679878.0,4680271.0,4681878.0,4682871.0,3509.0,517.0,393.0,993.0,1993.0,-4681878.0,0.0,0.0,0.0,1.0,0.0,0.0,0.0,-0.33230708537499865,9.072675737165303,0.1349997534335921,0.22499958905598813,4680639.0,4680714.0,75.0,425.59213489914924,9.405413433905506,10.34103976677902,-0.009569085907610662,368.0,-0.030800705023883004,1.0,9.83075127567702,9.809982082841087,0.1626920105481776,0.2388457176132789,4681104.0,4681131.0,27.0,64.04873872533884,0.07893507756893309,0.5326374582235216,-1.8370483759457914,-2.014097906538268
136,4720.575786,3.5078251,2,37,2,1,2,4,41.63461538,n/a,n/a,4682877.0,4686387.0,0.0,0.0,0.0,4684777.0,4683394.0,4685387.0,4683394.0,4684387.0,4685394.0,4686387.0,3510.0,517.0,993.0,993.0,1993.0,-4685394.0,0.0,0.0,0.0,1.0,0.0,0.0,0.0,-0.33230708537499865,-10.280750453788997,-0.21461499263802103,0.31499942467838415,4684763.0,4684840.0,77.0,635.3229194460065,9.962530646656493,11.077933144593386,-3.088406951389997,376.0,-3.074047582556824,1.0,-0.33230708537499865,-10.280750453788997,-0.21461499263802103,0.31499942467838415,4684763.0,4684840.0,77.0,635.3229194460065,9.962530646656493,11.077933144593386,-3.088406951389997,-3.074047582556824
137,4724.092042,3.5077862,2,38,2,2,1,5,41.63461538,n/a,n/a,4686394.0,4689903.0,0.0,0.0,0.0,4688503.0,4686910.0,4688904.0,4686910.0,4688103.0,4688910.0,4689903.0,3509.0,516.0,1193.0,993.0,1994.0,-4688910.0,0.0,0.0,0.0,1.0,0.0,0.0,0.0,-0.22499958905598813,10.194212150305924,0.328845553235675,-0.498460628062496,4688483.0,4688574.0,91.0,413.08261463169697,10.452005012784449,11.583617899749914,0.07923575379401246,380.0,0.08946947598879289,0.0,0.0,0.0,0.0,0.0,0.0,0.0,0.0,0.0,0.0,0.0,0.0,0.0
138,4727.60816,3.6661464,2,39,2,1,2,4,41.63461538,n/a,n/a,4689910.0,4693577.0,0.0,0.0,0.0,4691843.0,4690586.0,4692578.0,4690586.0,4691576.0,4692584.0,4693577.0,3667.0,676.0,990.0,993.0,1992.0,-4692584.0,0.0,0.0,0.0,1.0,0.0,0.0,0.0,-0.08307677134374868,-10.201135214584571,0.4292299852760381,0.882690695527338,4691823.0,4691889.0,66.0,555.0295707585784,10.128214713194941,11.155154009770733,-3.096805654480258,247.0,-3.0825999460956153,1.0,0.16961507482682103,-0.2284611211953118,0.65769110647135,0.5953835279635394,4692759.0,4692779.0,20.0,58.39180533141638,0.4029229357817181,0.47728992943153653,2.9863306596826873,0.41822432957922995
139,4731.282639,3.5078443,2,40,2,2,2,4,41.63461538,n/a,n/a,4693584.0,4697094.0,0.0,0.0,0.0,4695367.0,4694101.0,4696094.0,4694101.0,4695094.0,4696101.0,4697094.0,3510.0,517.0,993.0,993.0,1993.0,-4696101.0,0.0,0.0,0.0,1.0,0.0,0.0,0.0,-0.08653830348307236,9.481136529605411,0.21807652477734077,0.6646141707499973,4695356.0,4695417.0,61.0,445.4678661788582,9.578089453590708,10.87436230859314,-0.04663764776304964,262.0,-0.047128874437435644,1.0,-1.4192281771223867,-0.6507680421927026,0.4742299030872381,0.5330759494557249,4696180.0,4696202.0,22.0,73.90233753791223,0.7707099559168483,0.7702122921930359,-0.07642742004674813,0.06746502452190462
140,4734.798815,3.5077847,2,41,2,2,1,1,41.63461538,n/a,n/a,4697100.0,4700610.0,0.0,0.0,0.0,4698560.0,4697617.0,4699610.0,4697617.0,4698010.0,4699617.0,4700610.0,3510.0,517.0,393.0,993.0,1993.0,-4699617.0,0.0,0.0,0.0,1.0,0.0,0.0,0.0,-0.2423072497526026,9.384213629704364,-0.08999983562239604,0.08653830348307236,4698542.0,4698618.0,76.0,397.5700222906551,9.628139485756309,11.144560100462561,-0.018336671665551,532.0,0.03976764594856535,0.0,0.0,0.0,0.0,0.0,0.0,0.0,0.0,0.0,0.0,0.0,0.0,0.0
141,4738.314976,3.5078324,2,42,2,2,1,2,41.63461538,n/a,n/a,4700616.0,4704126.0,0.0,0.0,0.0,4702216.0,4701133.0,4703126.0,4701133.0,4701726.0,4703133.0,4704126.0,3510.0,517.0,593.0,993.0,1993.0,-4703133.0,0.0,0.0,0.0,1.0,0.0,0.0,0.0,-0.3461532139322894,9.325367583335881,-0.11769209273697762,0.006923064278647363,4702194.0,4702271.0,77.0,454.2366157739682,9.672323581712348,10.933985025212754,-0.012884040084498454,468.0,0.032930758169451194,1.0,9.065752672886664,-33.26532385889301,-1.176920927369784,18.726888873736858,4702586.0,4702612.0,26.0,18714.820027408066,46.77693539489325,57.19668210736228,-2.702073041463083,-2.5693351940880014
142,4741.831134,3.5078394,2,43,2,2,2,3,41.63461538,n/a,n/a,4704133.0,4707643.0,0.0,0.0,0.0,4705809.0,4704649.0,4706642.0,4704649.0,4705443.0,4706649.0,4707643.0,3510.0,516.0,794.0,994.0,1993.0,-4706649.0,0.0,0.0,0.0,1.0,0.0,0.0,0.0,-0.1384612855729158,8.996522030100206,0.017307660696614473,0.3807685353255184,4705788.0,4705848.0,60.0,440.0852555811979,9.142211110284661,10.460008423669699,-0.039766822719680316,345.0,-0.05628784350604334,1.0,0.06576911064713421,-0.3599993424895802,0.5365374815950487,0.6265373172174447,4706725.0,4706751.0,26.0,45.45618375538408,0.4351766837716479,0.45757736594902965,-2.933277091000365,-2.810273013285544
143,4745.347266,3.5078648,2,44,2,2,2,1,41.63461538,n/a,n/a,4707649.0,4711158.0,0.0,0.0,0.0,4708932.0,4708165.0,4710158.0,4708165.0,4708558.0,4710165.0,4711158.0,3509.0,516.0,393.0,993.0,1993.0,-4710165.0,0.0,0.0,0.0,1.0,0.0,0.0,0.0,-0.09692289990103947,10.339596500157487,0.062307578507810525,-0.020769192835938154,4708916.0,4708985.0,69.0,470.31920386949974,10.436850048637035,11.680994955617892,0.007960030879312026,358.0,-0.017484880664917817,0.0,0.0,0.0,0.0,0.0,0.0,0.0,0.0,0.0,0.0,0.0,0.0,0.0
144,4748.863425,3.5078725,2,45,2,2,2,3,41.63461538,n/a,n/a,4711165.0,4714674.0,0.0,0.0,0.0,4712898.0,4711682.0,4713675.0,4711682.0,4712474.0,4713681.0,4714675.0,3509.0,517.0,792.0,994.0,1993.0,-4713681.0,0.0,0.0,0.0,1.0,0.0,0.0,0.0,-0.33923014965364207,9.809982082841087,0.024230724975261835,0.27346103900650787,4712873.0,4712953.0,80.0,445.16628208805076,10.15227189793756,11.08508256314383,-0.024551682324722626,399.0,0.038418587044823746,0.0,0.0,0.0,0.0,0.0,0.0,0.0,0.0,0.0,0.0,0.0,0.0,0.0
145,4752.379649,3.507785,2,46,2,2,2,4,41.63461538,n/a,n/a,4714681.0,4718190.0,0.0,0.0,0.0,4716490.0,4715198.0,4717191.0,4715198.0,4716190.0,4717197.0,4718191.0,3509.0,517.0,992.0,994.0,1993.0,-4717197.0,0.0,0.0,0.0,1.0,0.0,0.0,0.0,-0.44999917811197626,8.639984219749941,0.07269217492578157,0.38769159960416577,4716466.0,4716550.0,84.0,345.62396414700277,9.095439671118323,9.692698565910991,-0.034639603981658086,276.0,-0.06611680378747041,1.0,7.19998684979162,-33.26532385889301,-0.2769225711458316,18.726888873736858,4717010.0,4717033.0,23.0,17264.074866240768,44.705550216757665,52.94461703111977,-2.702533091425897,-2.582099330417546
146,4755.895765,3.5078487,2,47,2,1,2,1,41.63461538,n/a,n/a,4718197.0,4721707.0,0.0,0.0,0.0,4719457.0,4718714.0,4720707.0,4718714.0,4719107.0,4720714.0,4721707.0,3510.0,517.0,393.0,993.0,1993.0,-4720714.0,0.0,0.0,0.0,0.0,1.0,0.0,0.0,0.0,0.0,0.0,0.0,0.0,0.0,0.0,0.0,0.0,0.0,0.0,0.0,0.0,0.0,0.0,0.0,0.0,0.0,0.0,0.0,0.0,0.0,0.0,0.0,0.0,0.0
147,4759.411945,3.5078199,2,48,2,2,1,5,41.63461538,n/a,n/a,4721713.0,4725223.0,0.0,0.0,0.0,4723730.0,4722230.0,4724223.0,4722230.0,4723423.0,4724230.0,4725223.0,3510.0,517.0,1193.0,993.0,1993.0,-4724230.0,0.0,0.0,0.0,1.0,0.0,0.0,0.0,-0.06576911064713421,9.588444025924417,-0.06576911064713421,-0.34961474607161314,4723710.0,4723779.0,69.0,432.5595744623498,9.65838493906203,10.54337516016559,0.029392751684428817,287.0,0.062091135879605165,0.0,0.0,0.0,0.0,0.0,0.0,0.0,0.0,0.0,0.0,0.0,0.0,0.0
148,4762.928235,3.5076883,2,49,2,2,2,3,41.63461538,n/a,n/a,4725230.0,4728739.0,0.0,0.0,0.0,4726879.0,4725746.0,4727739.0,4725746.0,4726539.0,4727746.0,4728740.0,3509.0,516.0,793.0,994.0,1993.0,-4727746.0,0.0,0.0,0.0,1.0,0.0,0.0,0.0,-0.28038410328515523,9.287290729803324,0.22499958905598813,0.6992294921432263,4726857.0,4726931.0,74.0,397.05817374873413,9.579420426763656,10.237656132799195,-0.049525315647245036,318.0,-0.055479749853543696,1.0,-0.9830751275677012,-0.1488458819908829,0.38423006746484206,1.1838439916484296,4728040.0,4728097.0,57.0,129.73564061860495,1.1555608430212334,1.7737236561510912,-0.7642148918184876,-0.6997357358424737
149,4766.444239,3.5078613,2,50,2,2,1,2,41.63461538,n/a,n/a,4728745.0,4732255.0,0.0,0.0,0.0,4730195.0,4729262.0,4731255.0,4729262.0,4729856.0,4731262.0,4732255.0,3510.0,517.0,594.0,993.0,1993.0,-4731262.0,0.0,0.0,0.0,1.0,0.0,0.0,0.0,-0.12461515701562499,9.221521619156194,0.0692306427864579,0.10384596417968683,4730173.0,4730243.0,70.0,394.3687206183735,9.346200878399014,10.638698466217217,-0.003703686768755276,317.0,0.030264194238625104,1.0,-0.12461515701562499,9.221521619156194,0.0692306427864579,0.10384596417968683,4730173.0,4730243.0,70.0,394.3687206183735,9.346200878399014,10.638698466217217,-0.003703686768755276,0.030264194238625104
150,4769.960423,3.5079742,2,51,2,2,1,1,41.63461538,n/a,n/a,4732262.0,4735771.0,0.0,0.0,0.0,4733512.0,4732778.0,4734771.0,4732778.0,4733171.0,4734778.0,4735771.0,3509.0,516.0,393.0,993.0,1993.0,-4734778.0,0.0,0.0,0.0,1.0,0.0,0.0,0.0,-0.3253840210963513,8.899599130199158,0.08999983562239604,0.4430761138333289,4733495.0,4733574.0,79.0,400.00463181316655,9.23173748543151,10.12860156381353,-0.03825524854309353,324.0,-0.06429482041558325,1.0,9.920751111299412,9.702674586522072,0.1869227355234355,0.1349997534335921,4733938.0,4733962.0,24.0,52.38566337395372,0.2241726270713361,0.42209406824904044,2.90784947272089,-2.608205386201385
151,4773.476586,3.5078435,2,52,2,2,1,5,41.63461538,n/a,n/a,4735778.0,4739287.0,0.0,0.0,0.0,4737804.0,4736295.0,4738288.0,4736295.0,4737487.0,4738294.0,4739287.0,3509.0,517.0,1192.0,993.0,1993.0,-4738294.0,0.0,0.0,0.0,1.0,0.0,0.0,0.0,-0.7649986027903605,9.259598472688742,0.12807668915494866,-0.588460463684892,4737775.0,4737854.0,79.0,251.6676438493645,10.050172735684896,10.647720124545256,0.0713565433354707,288.0,0.08071143105469503,1.0,9.249213876270776,9.841135872094988,-0.5988450601028592,-0.8203831170195276,4737857.0,4737876.0,19.0,69.52089917537056,0.6320211703755906,0.6813944906721856,0.3581296447173551,0.39088336311590893
152,4776.992763,3.5078217,2,53,2,2,1,2,41.63461538,n/a,n/a,4739294.0,4742804.0,0.0,0.0,0.0,4740871.0,4739811.0,4741804.0,4739811.0,4740404.0,4741810.0,4742804.0,3510.0,517.0,593.0,994.0,1993.0,-4741810.0,0.0,0.0,0.0,1.0,0.0,0.0,0.0,-0.079615239204425,9.13844484781244,0.33923014965364207,0.21461499263802103,4740852.0,4740926.0,74.0,385.3364075187292,9.218902359023629,10.547879723881568,0.013517764631527917,448.0,0.07324812030221434,0.0,0.0,0.0,0.0,0.0,0.0,0.0,0.0,0.0,0.0,0.0,0.0,0.0
153,4780.508926,3.5078073,2,54,2,2,1,2,41.63461538,n/a,n/a,4742810.0,4746320.0,0.0,0.0,0.0,4744293.0,4743327.0,4745319.0,4743327.0,4743920.0,4745327.0,4746320.0,3510.0,517.0,593.0,993.0,1992.0,-4745327.0,0.0,0.0,0.0,1.0,0.0,0.0,0.0,-0.21807652477734077,8.335369391489529,0.08653830348307236,0.40153772816145655,4744277.0,4744349.0,72.0,360.6058017105963,8.559244223647909,9.495288045441809,-0.036810560135170256,357.0,0.060917958365627356,1.0,8.41844616283328,-33.26532385889301,-0.10038443204036315,18.726888873736858,4744605.0,4744648.0,43.0,18628.127511413,45.738418242814205,56.48603726246878,-2.7173515217046433,-2.586143803642232
154,4784.025063,3.5078575,2,55,2,2,2,5,41.63461538,n/a,n/a,4746326.0,4749836.0,0.0,0.0,0.0,4748359.0,4746843.0,4748836.0,4746843.0,4748036.0,4748843.0,4749836.0,3510.0,517.0,1193.0,993.0,1993.0,-4748843.0,0.0,0.0,0.0,1.0,0.0,0.0,0.0,-0.1869227355234355,9.072675737165303,0.017307660696614473,0.8307677134374947,4748339.0,4748402.0,63.0,430.06818517677624,9.295261219181784,10.155484616428943,-0.08762550676325724,303.0,-0.08976496381675844,1.0,1.1838439916484313,-33.26532385889301,0.3703839389075513,18.726888873736858,4749432.0,4749456.0,24.0,11896.299374655533,39.03468251462013,47.413380172304564,-2.652005689961538,0.5336081964965018
155,4787.541254,3.5078456,2,56,2,1,2,1,41.63461538,n/a,n/a,4749842.0,4753352.0,0.0,0.0,0.0,4751126.0,4750359.0,4752352.0,4750359.0,4750753.0,4752359.0,4753352.0,3510.0,517.0,394.0,993.0,1993.0,-4752359.0,0.0,0.0,0.0,1.0,0.0,0.0,0.0,-0.32192248895702763,-8.996522030100202,-0.044999917811196055,0.0692306427864579,4751103.0,4751190.0,87.0,414.8723247360593,8.675351625160552,9.496274177378034,-3.1284250188231155,350.0,3.0919983178488537,1.0,-0.32192248895702763,-8.996522030100202,-0.044999917811196055,0.0692306427864579,4751103.0,4751190.0,87.0,414.8723247360593,8.675351625160552,9.496274177378034,-3.1284250188231155,3.0919983178488537
156,4795.248471,3.54124,2,57,2,1,2,2,41.63461538,n/a,n/a,4757550.0,4761093.0,0.0,0.0,0.0,4758966.0,4758100.0,4760092.0,4758100.0,4758693.0,4760099.0,4761093.0,3543.0,550.0,593.0,994.0,1992.0,-4760099.0,0.0,0.0,0.0,1.0,0.0,0.0,0.0,0.3911531317434855,-9.131521783533794,0.6784602993072881,0.4119223245794236,4758946.0,4759014.0,68.0,580.9650606580807,9.526404360199242,10.833533860079422,3.1136101376295304,253.0,3.0930064806470945,0.0,0.0,0.0,0.0,0.0,0.0,0.0,0.0,0.0,0.0,0.0,0.0,0.0
157,4798.797956,3.507833,2,58,2,1,1,1,41.63461538,n/a,n/a,4761099.0,4764608.0,0.0,0.0,0.0,4762366.0,4761616.0,4763608.0,4761616.0,4762009.0,4763615.0,4764608.0,3509.0,517.0,393.0,993.0,1992.0,-4763615.0,0.0,0.0,0.0,1.0,0.0,0.0,0.0,-0.1626920105481776,-10.401904078665298,0.4084607924401,0.4257684531367144,4762344.0,4762411.0,67.0,560.792541230526,10.239226695947016,11.000442519864064,-3.1399023238947374,335.0,3.098784176884917,1.0,-0.29076869970312236,-0.3634608746289039,1.3292283414999906,0.9103829526419196,4763096.0,4763118.0,22.0,55.53155434906987,0.42510658906103665,0.48714224319468824,1.7426383446804297,1.7277676163940228
158,4802.314134,3.5078177,2,59,2,1,2,1,41.63461538,n/a,n/a,4764615.0,4768124.0,0.0,0.0,0.0,4765882.0,4765132.0,4767125.0,4765132.0,4765525.0,4767132.0,4768124.0,3509.0,517.0,393.0,992.0,1993.0,-4767132.0,0.0,0.0,0.0,1.0,0.0,0.0,0.0,-0.5053836923411433,-9.477674997466083,0.10038443204036315,0.01384612855729079,4765859.0,4765927.0,68.0,497.2656214025091,8.972708629059028,9.961008479332985,3.1319478909291183,334.0,3.0988361186711404,1.0,-0.6161527207994736,0.578075867266925,0.702691024282546,0.9865366597070249,4767006.0,4767036.0,30.0,86.75533862009546,1.2274975622397748,1.2762542722018781,-0.23335128017048154,-0.22984823888658573
159,4805.830284,3.5078135,2,60,2,2,2,5,41.63461538,n/a,n/a,4768131.0,4771641.0,0.0,0.0,0.0,4770214.0,4768648.0,4770641.0,4768648.0,4769841.0,4770648.0,4771641.0,3510.0,517.0,1193.0,993.0,1993.0,-4770648.0,0.0,0.0,0.0,1.0,0.0,0.0,0.0,-0.8480753741341092,8.574215109102811,0.2284611211953118,0.7996139241835893,4770194.0,4770268.0,74.0,401.25331097542534,9.439585450371133,10.135802332718937,-0.060543111667283475,353.0,-0.07897210774139225,1.0,-1.8934580802096248,-1.2219208451809802,0.5642297387096302,0.6369219136354117,4771305.0,4771325.0,20.0,73.60222757356566,0.6754601471037041,0.670045692349709,-0.1078275739440413,-0.1923297470543744
160,4809.346415,3.6911731,2,61,2,1,2,1,41.63461538,n/a,n/a,4771648.0,4775340.0,0.0,0.0,0.0,4773174.0,4772347.0,4774340.0,4772347.0,4772741.0,4774347.0,4775340.0,3692.0,699.0,394.0,993.0,1993.0,-4774347.0,0.0,0.0,0.0,1.0,0.0,0.0,0.0,-0.15923047840885393,-10.914210835285084,0.4846144995052052,-0.14538434985156315,4773153.0,4773191.0,38.0,597.7012397140838,10.773416404603715,10.835617971633923,3.0830821092601255,412.0,3.0834183679424747,1.0,-10.917672367424409,-10.007289414782488,-0.13153822129426843,0.017307660696614473,4773193.0,4773232.0,39.0,153.3147888931189,0.9224707133815487,1.4012066607684923,-0.1620641714658109,-0.24198286621734333
161,4813.045874,3.5078297,2,62,2,1,1,5,41.63461538,n/a,n/a,4775347.0,4778856.0,0.0,0.0,0.0,4777357.0,4775864.0,4777857.0,4775864.0,4777057.0,4777863.0,4778856.0,3509.0,517.0,1193.0,993.0,1993.0,-4777863.0,0.0,0.0,0.0,1.0,0.0,0.0,0.0,-0.4049992603007802,-8.934214451592391,-0.031153789253905263,-0.5296144173164012,4777326.0,4777387.0,61.0,435.3907853298923,8.543768183716601,9.012766177322458,3.0832174932081773,269.0,3.0647029350553314,1.0,-8.428830759251248,-8.425369227111924,-0.758075538511713,-0.7269217492578078,4777543.0,4777565.0,22.0,23.363561249047834,0.031345506689608865,0.09698469327671894,-1.4601391056209732,0.9629943306809434
162,4816.562045,3.5578215,2,63,2,2,2,2,41.63461538,n/a,n/a,4778863.0,4782422.0,0.0,0.0,0.0,4780380.0,4779430.0,4781423.0,4779430.0,4780023.0,4781429.0,4782423.0,3559.0,567.0,593.0,994.0,1993.0,-4781429.0,0.0,0.0,0.0,1.0,0.0,0.0,0.0,-0.39807619602213284,9.290752261942652,0.498460628062496,0.3080763603997368,4780366.0,4780433.0,67.0,464.766462648458,9.690698790966612,10.845121061468113,0.01964734648699425,343.0,0.04406092193520386,1.0,-0.8480753741341092,-1.4330743056796775,0.6680757028893171,0.8792291633880144,4781737.0,4781756.0,19.0,64.55342393225666,0.6219401368218902,0.6285231168814364,-2.795199201398536,2.6853340726728905
163,4820.128244,3.5077925,2,64,2,2,2,3,41.63461538,n/a,n/a,4782429.0,4785939.0,0.0,0.0,0.0,4784106.0,4782946.0,4784939.0,4782946.0,4783739.0,4784946.0,4785939.0,3510.0,517.0,793.0,993.0,1993.0,-4784946.0,0.0,0.0,0.0,1.0,0.0,0.0,0.0,0.1730766069661447,9.436136611794208,-0.09346136776171972,0.1903842676627592,4784082.0,4784147.0,65.0,458.07935613459506,9.267407889900756,10.429031078572816,-0.03063316481580032,343.0,-0.050472219186635754,1.0,9.432675079654887,9.695751522243423,0.20423039622005,0.2561533783098934,4784149.0,4784168.0,19.0,25.047985035783704,0.26815146972213655,0.2569007274641762,-0.1948639196888743,0.24497866312687158
164,4823.644364,3.5078517,2,65,2,2,2,4,41.63461538,n/a,n/a,4785945.0,4789455.0,0.0,0.0,0.0,4787788.0,4786462.0,4788455.0,4786462.0,4787455.0,4788462.0,4789455.0,3510.0,517.0,993.0,993.0,1993.0,-4788462.0,0.0,0.0,0.0,1.0,0.0,0.0,0.0,-0.2319226533346355,8.113831334572868,0.5192298208984342,0.7442294099544223,4787768.0,4787835.0,67.0,402.1957587310382,8.348786405325589,9.394978935926234,-0.026953238863860283,313.0,-0.03943382435010723,1.0,-0.8619215026913999,-1.1388440738372314,1.1180748810012953,0.951921338313796,4788681.0,4788704.0,23.0,39.77416078596094,0.322944438189644,0.3412902172491416,2.601173153319208,2.4351665979337387
165,4827.160536,3.5078735,2,66,2,1,2,3,41.63461538,n/a,n/a,4789461.0,4792971.0,0.0,0.0,0.0,4791078.0,4789978.0,4791971.0,4789978.0,4790771.0,4791978.0,4792972.0,3510.0,517.0,793.0,994.0,1993.0,-4791978.0,0.0,0.0,0.0,0.0,1.0,0.0,0.0,0.0,0.0,0.0,0.0,0.0,0.0,0.0,0.0,0.0,0.0,0.0,0.0,0.0,0.0,0.0,0.0,0.0,0.0,0.0,0.0,0.0,0.0,0.0,0.0,0.0,0.0
166,4830.676756,3.5077717,2,67,2,2,1,1,41.63461538,n/a,n/a,4792978.0,4796487.0,0.0,0.0,0.0,4794404.0,4793494.0,4795487.0,4793494.0,4793888.0,4795494.0,4796487.0,3509.0,516.0,394.0,993.0,1993.0,-4795494.0,0.0,0.0,0.0,1.0,0.0,0.0,0.0,-0.09346136776171972,9.529597979555927,0.08653830348307236,0.19730733194140657,4794383.0,4794459.0,76.0,426.318440872345,9.623696845789725,11.169915825161398,-0.011510283020487812,495.0,0.04898343549354648,1.0,-1.9765348515533734,-1.709996876825509,1.1284594774192644,0.827306181298171,4795321.0,4795344.0,23.0,33.54095840258025,0.40216389661011426,0.4250784017726688,0.846298371675436,0.9240379005316112
167,4834.192861,3.5078541,2,68,2,2,1,5,41.63461538,n/a,n/a,4796494.0,4800003.0,0.0,0.0,0.0,4798587.0,4797010.0,4799003.0,4797011.0,4798204.0,4799010.0,4800003.0,3509.0,517.0,1193.0,993.0,1993.0,-4799010.0,0.0,0.0,0.0,1.0,0.0,0.0,0.0,-0.07615370706510526,10.259981260953062,0.2319226533346355,-0.12461515701562499,4798567.0,4798644.0,77.0,484.6488388851955,10.342282402221342,11.42955454907309,0.0344806354239976,363.0,0.06455358090151082,1.0,5.358451751671839,5.233836594656218,0.5849989315455684,0.6092296565208302,4799178.0,4799203.0,25.0,28.915248925828045,0.1269490661283283,0.24771126444464922,-2.9495446363490463,-2.565217432998599
168,4837.709046,3.5078414,2,69,2,2,2,3,41.63461538,n/a,n/a,4800010.0,4803519.0,0.0,0.0,0.0,4801660.0,4800527.0,4802520.0,4800527.0,4801319.0,4802526.0,4803519.0,3509.0,517.0,792.0,993.0,1993.0,-4802526.0,0.0,0.0,0.0,1.0,0.0,0.0,0.0,0.024230724975261835,9.688828457964785,0.006923064278647363,0.33923014965364207,4801643.0,4801716.0,73.0,423.470589896194,9.670309061219122,11.053951827134505,-0.034370413543003825,324.0,-0.05231972180992525,1.0,9.373829033286396,-33.26532385889301,-0.4465376459726526,18.726888873736858,4802238.0,4802260.0,22.0,19208.076185381822,46.75165926327484,57.624228556145475,-2.7190155571421286,-2.600390197201125
169,4841.22523,3.5077902,2,70,2,1,1,3,41.63461538,n/a,n/a,4803526.0,4807036.0,0.0,0.0,0.0,4805153.0,4804043.0,4806036.0,4804043.0,4804836.0,4806042.0,4807036.0,3510.0,517.0,793.0,994.0,1993.0,-4806042.0,0.0,0.0,0.0,1.0,0.0,0.0,0.0,-0.2561533783098934,-10.408827142943945,-0.09346136776171972,-0.2526918461705697,4805136.0,4805199.0,63.0,473.6533324171277,10.153922341457163,10.991132048976509,3.1259103389171248,300.0,3.0965411904738187,1.0,-11.509594363248624,-11.519978959666592,-0.4707683709479144,-0.6057681243815065,4805520.0,4805541.0,21.0,33.6004458127288,0.13539857189015958,0.27720367795501466,1.6475682180646636,-1.8490959858000158
170,4844.741353,3.5078806,2,71,2,1,2,3,41.63461538,n/a,n/a,4807042.0,4810552.0,0.0,0.0,0.0,4808719.0,4807559.0,4809552.0,4807559.0,4808352.0,4809559.0,4810552.0,3510.0,517.0,793.0,993.0,1993.0,-4809559.0,0.0,0.0,0.0,1.0,0.0,0.0,0.0,-0.3426916817929658,-9.449982740351501,-0.079615239204425,0.01384612855729079,4808701.0,4808754.0,53.0,522.4206517478955,9.10777060825338,9.818722405348671,-3.1313307561232446,349.0,3.1088001802654843,1.0,-0.3426916817929658,-9.449982740351501,-0.079615239204425,0.01384612855729079,4808701.0,4808754.0,53.0,522.4206517478955,9.10777060825338,9.818722405348671,-3.1313307561232446,3.1088001802654843
