onset	duration	run_number	trial_number	task	ext_mot_pos	ext_mot_ver_dir	staircase_num	fix_off_prct	trial_type	ext_mot_ori	direction_report	response_duration
3055.200441	3.7327003	2	1	1	2	2	2	2	2	-65	n/a	n/a
3058.941489	3.5078406	2	2	1	1	2	1	3	2	-15	1	-0.3829722
3062.457664	3.5078192	2	3	1	1	2	1	3	2	-10	1	-0.7244818
3065.973815	3.5078453	2	4	1	2	2	1	4	1	-5	1	-0.0995775
3069.498461	3.5160414	2	5	1	1	2	1	3	2	0	2	-0.582816
3073.031302	3.5076975	2	6	1	2	2	1	5	2	-5	1	-0.0491004
3076.54732	3.5078251	2	7	1	1	1	2	1	2	-65	2	-0.5828379
3080.063603	3.5077081	2	8	1	2	2	2	5	2	-70	2	0.0510277
3083.579697	3.507793	2	9	1	1	1	1	3	2	0	2	-0.616234
3087.095806	3.5078054	2	10	1	2	2	1	4	2	-5	1	-0.5738437
3090.611971	3.5078275	2	11	1	2	1	1	4	2	0	2	-0.5739213
3094.12813	3.5078352	2	12	1	2	2	1	2	2	-5	1	-0.4248044
3097.64439	3.5077506	2	13	1	1	2	1	5	2	0	2	-0.4913497
3101.160465	3.507825	2	14	1	2	2	2	1	1	-75	2	-0.2248406
3104.676661	3.507778	2	15	1	1	1	1	1	1	-5	1	-0.4664655
3108.192756	3.5078618	2	16	1	2	1	1	3	2	0	2	-0.4330398
3111.70895	3.508023503	2	17	1	1	1	1	2	2	-5	1	-0.0914236
3115.225097	3.5078679	2	18	1	1	2	2	4	2	-80	2	-0.2497395
3118.741372	3.5077331	2	19	1	1	1	1	5	1	0	2	-0.1080972
3122.257442	3.5078451	2	20	1	1	1	2	2	2	-85	2	-0.0164366
3125.773607	3.5078299	2	21	1	2	1	1	1	1	-5	1	-0.6247142
3129.289908	3.5076865	2	22	1	2	1	2	2	2	-90	2	-0.2580761
3132.80591	3.5079586	2	23	1	2	1	2	3	2	-95	2	-0.357946
3136.322106	3.5078186	2	24	1	1	1	1	4	2	0	2	-0.7075229
3139.838256	3.5078454	2	25	1	2	1	2	3	1	-100	2	-0.3580664
3143.354426	3.5078434	2	26	1	2	1	1	5	1	-5	1	-0.9330877
3146.870586	3.5078307	2	27	1	2	2	2	4	1	-105	2	-0.4748566
3150.386749	3.5078283	2	28	1	1	2	1	5	1	0	1	-0.3824861
3153.90301	3.5077169	2	29	1	1	1	1	1	2	5	1	-0.1914995
3157.41906	3.5079441	2	30	1	2	2	2	5	2	-110	2	-0.1659841
3160.935228	3.5078263	2	31	1	1	2	1	1	2	10	2	-0.6330357
3164.451522	3.5077126	2	32	1	2	2	1	2	1	5	2	-0.0914496
3167.9677	3.5077125	2	33	1	1	1	2	4	2	-115	1	-0.674622
3171.483725	3.5079693	2	34	1	2	2	2	4	2	-110	2	-0.2497436
3174.999922	3.5078072	2	35	1	2	1	1	1	2	0	2	-0.5996432
3178.516066	3.5078508	2	36	1	2	1	2	2	1	-115	1	-0.3747213
3182.032239	3.507817	2	37	1	1	1	1	4	2	-5	2	-0.3158019
3185.548458	3.5077733	2	38	1	1	1	2	4	1	-110	1	-0.0997861
3189.064551	3.5078364	2	39	1	2	2	1	5	1	-10	1	-0.449832
3192.580716	3.5078466	2	40	1	2	2	1	3	2	-5	1	-0.4913872
3196.096883	3.5078374	2	41	1	2	2	2	5	2	-105	2	-0.4579563
3199.613172	3.5077279	2	42	1	2	2	2	5	2	-110	2	-0.2331558
3203.129231	3.5078095	2	43	1	2	1	2	4	2	-115	1	-0.116531
3206.645362	3.5078307	2	44	1	2	2	2	1	1	-110	2	-0.4165298
3210.161527	3.4995169	2	45	1	2	2	2	1	2	-115	2	0.0753158
3213.669345	3.5078731	2	46	1	1	1	1	1	1	0	1	-0.5496541
3217.185552	3.5077974	2	47	1	1	2	1	4	1	5	2	-0.5413591
3220.701823	3.5077083	2	48	1	1	1	1	5	2	0	2	-0.7331747
3224.217867	3.5078302	2	49	1	1	1	2	1	2	-120	1	-0.474616
3227.734032	3.5078173	2	50	1	1	1	2	2	2	-115	1	-0.166558
3231.250211	3.5078186	2	51	1	1	1	1	4	1	-5	1	-0.4663948
3234.766362	3.5078333	2	52	1	1	1	2	4	1	-110	1	-0.3746015
3238.282483	3.5078896	2	53	1	2	2	1	3	2	0	2	-0.0747623
3241.798704	3.5078145	2	54	1	2	2	2	2	1	-105	2	0.2918705
3245.31503	3.5076769	2	55	1	2	2	1	4	2	-5	1	-0.5830417
3248.831163	3.5077046	2	56	1	1	1	1	5	2	0	2	-1.1330181
3252.347333	3.5076683	2	57	1	1	1	1	4	1	-5	1	-0.9162152
3255.863337	3.5079562	2	58	1	1	1	2	2	1	-110	2	-0.474703
3259.379501	3.5078327	2	59	1	2	2	2	3	1	-115	1	-0.2915266
3262.8958	3.507835	2	60	1	2	1	1	3	2	0	2	-0.5663802
3266.420204	3.5077958	2	61	1	2	1	1	5	1	-5	1	-0.7082023
3269.936466	3.5077109	2	62	1	1	2	2	4	2	-110	2	-0.2330563
3273.452595	3.5077614	2	63	1	2	1	2	1	2	-115	1	-0.2497406
3276.968675	3.507833	2	64	1	2	2	2	4	1	-110	2	-0.4413559
3280.484989	3.5076783	2	65	1	2	1	1	4	1	0	1	0.1010428
3284.001137	3.5077306	2	66	1	1	1	1	1	1	5	2	-0.8079925
3287.517386	3.5075862	2	67	1	2	2	2	2	2	-115	1	0.4499827
3291.033334	3.5080065	2	68	1	2	1	2	5	1	-110	1	0.2584596
3294.5495	3.5078334	2	69	1	1	1	2	2	1	-105	2	0.1168398
3298.065664	3.5078521	2	70	1	2	1	1	2	2	0	2	-0.4996701
3301.581854	3.507798	2	71	1	2	2	1	2	2	-5	1	-0.6496841
3305.098131	3.507685	2	72	1	2	2	1	5	2	0	2	0.0584954
3308.614143	3.5078254	2	73	1	1	2	1	1	1	-5	1	-0.5414089
3312.130322	3.5078027	2	74	1	1	1	2	5	2	-110	1	-0.4075065
3315.646472	3.5078518	2	75	1	1	1	1	1	2	0	2	-1.016196
3319.162653	3.5078458	2	76	1	2	2	1	4	1	-5	1	-0.9996192
3322.678868	3.5077816	2	77	1	1	2	1	2	2	0	2	-0.9411829
3326.19498	3.5078373	2	78	1	1	2	2	1	2	-105	2	-0.3325316
3329.711147	3.5078239	2	79	1	1	2	1	1	1	-5	1	-0.4413753
3333.227481	3.5076481	2	80	1	2	2	2	3	1	-110	2	-0.6080205
3336.743627	3.5076961	2	81	1	1	2	1	3	1	0	2	-0.61635
3340.259647	3.5078327	2	82	1	2	2	2	3	2	-115	2	-0.2915549
3343.77581	3.5078706	2	83	1	1	2	1	2	2	-5	1	-0.1163963
3347.29199	3.5079584	2	84	1	1	2	2	4	1	-120	1	-0.3828279
3350.808127	3.5078449	2	85	1	2	2	1	1	2	0	2	-0.349536
3354.324304	3.5078267	2	86	1	2	2	2	5	2	-115	1	0.6084228
3357.840455	3.5078303	2	87	1	2	2	2	5	2	-110	1	-0.3997021
3361.356622	3.5078444	2	88	1	1	1	1	2	1	-5	1	-0.3830698
3364.872797	3.4995045	2	89	1	2	2	2	2	1	-105	2	-0.258056
3368.380632	3.5078348	2	90	1	1	2	2	5	1	-110	1	-0.6242138
3371.896797	3.5078216	2	91	1	1	1	2	1	2	-105	2	0.0002658999997
3375.412952	3.5078787	2	92	1	1	1	2	4	2	-110	1	0.0252422
3378.929147	3.5078295	2	93	1	1	2	1	2	2	0	1	0.2839176
3382.445265	3.5078647	2	94	1	2	2	2	4	2	-105	1	-0.0331063
3385.961461	3.5078376	2	95	1	2	1	1	4	2	5	1	-0.7080363
3389.477769	3.5076953	2	96	1	2	1	2	1	2	-100	2	-0.1247574
3392.993784	3.5078435	2	97	1	2	1	1	2	1	10	2	-0.7664559
3396.509956	3.5078454	2	98	1	1	1	1	2	2	5	2	-0.9579864
3400.026132	3.5078431	2	99	1	1	1	2	3	1	-105	2	-0.5995216
3403.542291	3.5078169	2	100	1	1	2	2	2	2	-110	1	-0.2830745
