,onset,duration,run_number,trial_number,task,ext_mot_pos,ext_mot_ver_dir,staircase_num,fix_off_prct,trial_type,ext_mot_ori,direction_report,response_duration,trial_onset,trial_offset,button_press_onset,button_left,button_right,fix_break,motion_onset,motion_offset,fixation_onset,fixation_offset,response_onset,response_offset,trial_duration,fix_check_duration,fixation_duration,response_duration,motion_duration,reaction_time
0,2516.119222,3.5410982,1,1,1,2,2,1,2,2,-15,n/a,n/a,92596.0,96136.0,0.0,0.0,0.0,0.0,93137.0,95137.0,93137.0,96138.0,95143.0,96139.0,3540.0,541.0,3001.0,996.0,2000.0,-95143.0
1,2519.677113,3.507698,1,2,1,1,2,1,1,1,-15,n/a,n/a,96153.0,99661.0,0.0,0.0,0.0,0.0,96670.0,98661.0,96670.0,99661.0,98668.0,99661.0,3508.0,517.0,2991.0,993.0,1991.0,-98668.0
2,2523.193274,3.5077104,1,3,1,1,2,2,5,1,-65,1.0,-1.1325339,99668.0,103177.0,101053.0,101053.0,0.0,0.0,100186.0,102177.0,100186.0,103177.0,102184.0,103177.0,3509.0,518.0,2991.0,993.0,1991.0,-1131.0
3,2526.709317,3.5078268,1,4,1,1,1,1,2,2,-15,1.0,-0.6328001,103184.0,106693.0,105069.0,105069.0,0.0,0.0,103702.0,105694.0,103702.0,106693.0,105700.0,106693.0,3509.0,518.0,2991.0,993.0,1992.0,-631.0
4,2530.225457,3.5161687,1,5,1,2,1,2,5,2,-60,2.0,-1.1910817,106700.0,110218.0,108035.0,0.0,108035.0,0.0,107227.0,109218.0,107228.0,110219.0,109225.0,110220.0,3518.0,528.0,2991.0,995.0,1991.0,-1190.0
5,2533.75829,3.5078469,1,6,1,2,2,2,4,1,-65,1.0,-0.8994246,110234.0,113743.0,111852.0,111852.0,0.0,0.0,110751.0,112742.0,110751.0,113743.0,112749.0,113744.0,3509.0,517.0,2992.0,995.0,1991.0,-897.0
6,2537.274671,3.507614744,1,7,1,2,1,1,3,2,-10,1.0,-0.8904823,113749.0,117258.0,115376.0,115376.0,0.0,0.0,114267.0,116258.0,114267.0,117258.0,116265.0,117258.0,3509.0,518.0,2991.0,993.0,1991.0,-889.0
7,2540.790601,3.5078489,1,8,1,1,1,1,3,1,-5,1.0,-0.3572332,117265.0,120774.0,119426.0,119426.0,0.0,0.0,117783.0,119775.0,117783.0,120774.0,119781.0,120774.0,3509.0,518.0,2991.0,993.0,1992.0,-355.0
8,2544.306773,3.5078048,1,9,1,1,1,1,4,1,0,2.0,-0.8910241,120781.0,124291.0,122409.0,0.0,122409.0,0.0,121299.0,123291.0,121299.0,124291.0,123297.0,124291.0,3510.0,518.0,2992.0,994.0,1992.0,-888.0
9,2547.822931,3.5078127,1,10,1,1,2,2,5,1,-60,2.0,-0.916086,124297.0,127807.0,125899.0,0.0,125899.0,0.0,124815.0,126806.0,124815.0,127807.0,126813.0,127807.0,3510.0,518.0,2992.0,994.0,1991.0,-914.0
10,2551.339077,3.507808,1,11,1,2,2,1,2,1,-5,1.0,-1.1161912,127813.0,131323.0,129215.0,129215.0,0.0,0.0,128332.0,130323.0,128332.0,131323.0,130330.0,131323.0,3510.0,519.0,2991.0,993.0,1991.0,-1115.0
11,2554.855236,3.507858,1,12,1,1,2,1,4,2,0,2.0,-0.8246183,131329.0,134838.0,133023.0,0.0,133023.0,0.0,131848.0,133839.0,131848.0,134839.0,133846.0,134839.0,3509.0,519.0,2991.0,993.0,1991.0,-823.0
12,2558.371425,3.5078304,1,13,1,1,1,1,4,2,-5,1.0,-0.8413545,134846.0,138355.0,136523.0,136523.0,0.0,0.0,135364.0,137355.0,135364.0,138355.0,137362.0,138355.0,3509.0,518.0,2991.0,993.0,1991.0,-839.0
13,2561.89592,3.5077903,1,14,1,1,1,2,1,1,-65,2.0,-0.5573289,138370.0,141879.0,140331.0,0.0,140331.0,0.0,138889.0,140880.0,138889.0,141879.0,140886.0,141879.0,3509.0,519.0,2990.0,993.0,1991.0,-555.0
14,2565.41207,3.5078377,1,15,1,2,2,1,4,2,0,2.0,-0.3165246,141886.0,145395.0,144088.0,0.0,144088.0,0.0,142405.0,144396.0,142405.0,145395.0,144403.0,145396.0,3509.0,519.0,2990.0,993.0,1991.0,-315.0
15,2568.928232,3.507839,1,16,1,1,2,1,3,2,-5,1.0,-0.8829973,145402.0,148912.0,147038.0,147038.0,0.0,0.0,145921.0,147912.0,145921.0,148912.0,147919.0,148912.0,3510.0,519.0,2991.0,993.0,1991.0,-881.0
16,2572.444394,3.5078348,1,17,1,2,1,1,3,1,0,2.0,-1.0747665,148919.0,152428.0,150362.0,0.0,150362.0,0.0,149436.0,151429.0,149436.0,152428.0,151435.0,152428.0,3509.0,517.0,2992.0,993.0,1993.0,-1073.0
17,2575.960562,3.5078321,1,18,1,2,2,1,3,1,-5,1.0,-0.5748444,152435.0,155944.0,154378.0,154378.0,0.0,0.0,152953.0,154945.0,152953.0,155944.0,154951.0,155944.0,3509.0,518.0,2991.0,993.0,1992.0,-573.0
18,2579.476722,3.5078334,1,19,1,1,2,1,5,2,0,2.0,-0.1080273,155951.0,159461.0,158361.0,0.0,158361.0,0.0,156469.0,158460.0,156469.0,159461.0,158467.0,159461.0,3510.0,518.0,2992.0,994.0,1991.0,-106.0
19,2582.99287,3.5079354,1,20,1,2,2,2,1,1,-70,2.0,-0.6163472,159467.0,162977.0,161369.0,0.0,161369.0,0.0,159985.0,161976.0,159985.0,162977.0,161983.0,162977.0,3510.0,518.0,2992.0,994.0,1991.0,-614.0
20,2586.509166,3.5076989,1,21,1,1,2,1,4,1,-5,1.0,-0.8329117,162983.0,166492.0,164668.0,164668.0,0.0,0.0,163502.0,165493.0,163502.0,166492.0,165500.0,166492.0,3509.0,519.0,2990.0,992.0,1991.0,-832.0
21,2590.025172,3.5078654,1,22,1,1,2,2,1,1,-75,2.0,-0.4246871,166499.0,170008.0,168592.0,0.0,168592.0,0.0,167018.0,169009.0,167018.0,170008.0,169016.0,170009.0,3509.0,519.0,2990.0,993.0,1991.0,-424.0
22,2593.541377,3.5077985,1,23,1,1,2,2,2,1,-80,2.0,-0.5663311,170016.0,173525.0,171967.0,0.0,171967.0,0.0,170533.0,172525.0,170533.0,173525.0,172532.0,173525.0,3509.0,517.0,2992.0,993.0,1992.0,-565.0
23,2597.057501,3.5078479,1,24,1,1,2,2,2,2,-85,2.0,-0.2747136,173532.0,177041.0,175775.0,0.0,175775.0,0.0,174049.0,176042.0,174049.0,177041.0,176048.0,177041.0,3509.0,517.0,2992.0,993.0,1993.0,-273.0
24,2600.573665,3.507808,1,25,1,2,1,2,2,1,-90,2.0,-0.4246682,177048.0,180557.0,179141.0,0.0,179141.0,0.0,177566.0,179558.0,177566.0,180558.0,179564.0,180558.0,3509.0,518.0,2992.0,994.0,1992.0,-423.0
25,2604.089832,3.5078417,1,26,1,1,1,1,3,2,0,2.0,-0.5663271,180564.0,184074.0,182515.0,0.0,182515.0,0.0,181082.0,183073.0,181082.0,184074.0,183080.0,184074.0,3510.0,518.0,2992.0,994.0,1991.0,-565.0
26,2607.606006,3.5078398,1,27,1,2,1,2,2,2,-95,2.0,-0.6830047,184080.0,187589.0,185915.0,0.0,185915.0,0.0,184598.0,186590.0,184598.0,187589.0,186596.0,187589.0,3509.0,518.0,2991.0,993.0,1992.0,-681.0
27,2611.122175,3.5077959,1,28,1,1,1,2,2,1,-100,2.0,-0.8075165,187596.0,191105.0,189306.0,0.0,189306.0,0.0,188115.0,190106.0,188115.0,191105.0,190112.0,191105.0,3509.0,519.0,2990.0,993.0,1991.0,-806.0
28,2614.638332,3.507817,1,29,1,2,2,1,4,1,-5,1.0,-0.8409253,191112.0,194622.0,192789.0,192789.0,0.0,0.0,191630.0,193622.0,191630.0,194622.0,193628.0,194622.0,3510.0,518.0,2992.0,994.0,1992.0,-839.0
29,2618.154494,3.5078324,1,30,1,2,2,1,3,1,0,2.0,-1.0746104,194629.0,198138.0,196072.0,0.0,196072.0,0.0,195146.0,197138.0,195146.0,198138.0,197145.0,198138.0,3509.0,517.0,2992.0,993.0,1992.0,-1073.0
30,2621.670787,3.5076936,1,31,1,1,1,2,5,2,-105,2.0,-0.3829664,198145.0,201654.0,200280.0,0.0,200280.0,0.0,198663.0,200655.0,198663.0,201654.0,200661.0,201654.0,3509.0,518.0,2991.0,993.0,1992.0,-381.0
31,2625.186811,3.5078338,1,32,1,2,2,1,3,1,-5,1.0,-0.7913304,201661.0,205170.0,203387.0,203387.0,0.0,0.0,202179.0,204170.0,202179.0,205171.0,204177.0,205171.0,3509.0,518.0,2992.0,994.0,1991.0,-790.0
32,2628.702975,3.5078315,1,33,1,2,1,1,1,2,0,2.0,-0.5330305,205177.0,208686.0,207162.0,0.0,207162.0,0.0,205695.0,207686.0,205695.0,208686.0,207693.0,208686.0,3509.0,518.0,2991.0,993.0,1991.0,-531.0
33,2632.219138,3.5078293,1,34,1,1,2,2,2,1,-110,1.0,-0.5746797,208693.0,212202.0,210636.0,210636.0,0.0,0.0,209211.0,211203.0,209212.0,212202.0,211209.0,212202.0,3509.0,519.0,2990.0,993.0,1992.0,-573.0
34,2635.735307,3.5078214,1,35,1,2,1,1,4,2,-5,1.0,-0.5913542,212209.0,215718.0,214136.0,214136.0,0.0,0.0,212728.0,214719.0,212728.0,215719.0,214725.0,215719.0,3509.0,519.0,2991.0,994.0,1991.0,-589.0
35,2639.251605,3.5076992,1,36,1,2,2,2,1,2,-105,2.0,-0.3080535,215726.0,219235.0,217935.0,0.0,217935.0,0.0,216243.0,218235.0,216243.0,219235.0,218242.0,219235.0,3509.0,517.0,2992.0,993.0,1992.0,-307.0
36,2642.767638,3.5078156,1,37,1,2,1,2,5,1,-110,1.0,-0.2996452,219241.0,222751.0,221460.0,221460.0,0.0,0.0,219759.0,221751.0,219759.0,222751.0,221758.0,222751.0,3510.0,518.0,2992.0,993.0,1992.0,-298.0
37,2646.283777,3.5078252,1,38,1,2,1,1,5,2,0,2.0,-0.6664644,222758.0,226267.0,224609.0,0.0,224609.0,0.0,223276.0,225267.0,223276.0,226267.0,225274.0,226267.0,3509.0,518.0,2991.0,993.0,1991.0,-665.0
38,2649.799933,3.5078314,1,39,1,1,2,2,2,1,-105,1.0,-0.7163239,226274.0,229784.0,228075.0,228075.0,0.0,0.0,226792.0,228783.0,226792.0,229784.0,228790.0,229784.0,3510.0,518.0,2992.0,994.0,1991.0,-715.0
39,2653.3161,3.5078505,1,40,1,1,2,1,4,2,-5,1.0,-0.8162734,229790.0,233299.0,231492.0,231492.0,0.0,0.0,230308.0,232299.0,230308.0,233299.0,232306.0,233299.0,3509.0,518.0,2991.0,993.0,1991.0,-814.0
40,2656.832261,3.5078717,1,41,1,1,2,2,2,1,-100,1.0,-0.2580199,233306.0,236815.0,235566.0,235566.0,0.0,0.0,233825.0,235816.0,233825.0,236815.0,235822.0,236815.0,3509.0,519.0,2990.0,993.0,1991.0,-256.0
41,2660.348434,3.5078321,1,42,1,2,2,2,3,2,-95,2.0,-0.9412218,236822.0,240332.0,238398.0,0.0,238398.0,0.0,237341.0,239332.0,237341.0,240332.0,239338.0,240332.0,3510.0,519.0,2991.0,994.0,1991.0,-940.0
42,2663.8646,3.5078307,1,43,1,1,2,2,3,2,-100,2.0,-0.6996201,240338.0,243848.0,242157.0,0.0,242157.0,0.0,240856.0,242848.0,240856.0,243848.0,242855.0,243848.0,3510.0,518.0,2992.0,993.0,1992.0,-698.0
43,2667.380886,3.5077062,1,44,1,1,2,2,3,2,-105,2.0,-0.5746662,243855.0,247364.0,245798.0,0.0,245798.0,0.0,244372.0,246364.0,244373.0,247364.0,246371.0,247364.0,3509.0,518.0,2991.0,993.0,1992.0,-573.0
44,2670.896929,3.5078303,1,45,1,2,2,1,1,1,0,2.0,-0.6413535,247371.0,250880.0,249247.0,0.0,249247.0,0.0,247889.0,249880.0,247889.0,250881.0,249887.0,250881.0,3509.0,518.0,2992.0,994.0,1991.0,-640.0
45,2674.413088,3.5078473,1,46,1,1,1,2,4,1,-110,1.0,-0.2747244,250887.0,254396.0,253130.0,253130.0,0.0,0.0,251405.0,253396.0,251405.0,254396.0,253403.0,254396.0,3509.0,518.0,2991.0,993.0,1991.0,-273.0
46,2677.929264,3.9410558,1,47,1,1,2,1,1,2,-5,1.0,-0.9579374,254403.0,258346.0,256396.0,256396.0,0.0,0.0,255354.0,257345.0,255354.0,258346.0,257352.0,258346.0,3943.0,951.0,2992.0,994.0,1991.0,-956.0
47,2681.878688,3.5079619,1,48,1,2,1,1,2,2,0,2.0,-1.0325405,258352.0,261862.0,259838.0,0.0,259838.0,0.0,258870.0,260862.0,258871.0,261862.0,260869.0,261863.0,3510.0,519.0,2991.0,994.0,1992.0,-1031.0
48,2685.394986,3.5076941,1,49,1,2,2,1,2,1,-5,1.0,-0.8573981,261869.0,265377.0,263529.0,263529.0,0.0,0.0,262387.0,264378.0,262387.0,265378.0,264385.0,265378.0,3508.0,518.0,2991.0,993.0,1991.0,-856.0
49,2688.911147,3.5077125,1,50,1,1,1,2,2,1,-105,2.0,-0.9412924,265385.0,268894.0,266962.0,0.0,266962.0,0.0,265903.0,267894.0,265903.0,268894.0,267901.0,268894.0,3509.0,518.0,2991.0,993.0,1991.0,-939.0
50,2692.427194,3.5079212,1,51,1,1,2,2,1,1,-110,1.0,-0.4496846,268901.0,272410.0,270969.0,270969.0,0.0,0.0,269418.0,271410.0,269418.0,272410.0,271417.0,272410.0,3509.0,517.0,2992.0,993.0,1992.0,-448.0
51,2695.943332,3.5078279,1,52,1,2,1,1,3,2,0,2.0,-1.0658959,272417.0,275926.0,273869.0,0.0,273869.0,0.0,272935.0,274927.0,272935.0,275927.0,274933.0,275927.0,3509.0,518.0,2992.0,994.0,1992.0,-1064.0
52,2699.459581,3.5077434,1,53,1,1,2,2,3,1,-105,1.0,-0.3662005,275933.0,279443.0,278084.0,278084.0,0.0,0.0,276451.0,278443.0,276451.0,279443.0,278449.0,279443.0,3510.0,518.0,2992.0,994.0,1992.0,-365.0
53,2702.975743,3.5077431,1,54,1,2,1,1,1,2,-5,1.0,-0.8663162,279449.0,282959.0,281101.0,281101.0,0.0,0.0,279967.0,281958.0,279967.0,282959.0,281965.0,282959.0,3510.0,518.0,2992.0,994.0,1991.0,-864.0
54,2706.49183,3.5078314,1,55,1,2,2,2,1,1,-100,2.0,-0.5663505,282965.0,286475.0,284917.0,0.0,284917.0,0.0,283484.0,285475.0,283484.0,286475.0,285482.0,286475.0,3510.0,519.0,2991.0,993.0,1991.0,-565.0
55,2710.007993,3.5078493,1,56,1,1,2,1,1,1,0,2.0,-0.2495913,286481.0,289991.0,288750.0,0.0,288750.0,0.0,287000.0,288991.0,287000.0,289991.0,288998.0,289991.0,3510.0,519.0,2991.0,993.0,1991.0,-248.0
56,2713.52416,3.5078407,1,57,1,1,2,2,5,2,-105,1.0,-0.3829129,289998.0,293507.0,292133.0,292133.0,0.0,0.0,290516.0,292507.0,290516.0,293507.0,292514.0,293507.0,3509.0,518.0,2991.0,993.0,1991.0,-381.0
57,2717.040335,3.5078187,1,58,1,1,2,2,2,1,-100,2.0,-0.4913802,293514.0,297023.0,295540.0,0.0,295540.0,0.0,294031.0,296024.0,294032.0,297023.0,296030.0,297023.0,3509.0,518.0,2991.0,993.0,1993.0,-490.0
58,2720.556477,3.5078402,1,59,1,2,2,1,1,1,-5,1.0,-1.0747504,297030.0,300539.0,298473.0,298473.0,0.0,0.0,297548.0,299540.0,297548.0,300540.0,299546.0,300540.0,3509.0,518.0,2992.0,994.0,1992.0,-1073.0
59,2724.072651,3.5078506,1,60,1,1,2,1,3,1,0,2.0,-0.3080645,300546.0,304056.0,302756.0,0.0,302756.0,0.0,301064.0,303056.0,301064.0,304056.0,303062.0,304056.0,3510.0,518.0,2992.0,994.0,1992.0,-306.0
60,2727.588829,3.5077972,1,61,1,1,1,2,4,2,-105,2.0,-0.69137,304062.0,307572.0,305889.0,0.0,305889.0,0.0,304580.0,306571.0,304580.0,307572.0,306578.0,307572.0,3510.0,518.0,2992.0,994.0,1991.0,-689.0
61,2731.10499,3.5078331,1,62,1,2,1,1,2,2,-5,1.0,-1.0247781,307578.0,311088.0,309071.0,309071.0,0.0,0.0,308097.0,310088.0,308097.0,311088.0,310095.0,311088.0,3510.0,519.0,2991.0,993.0,1991.0,-1024.0
62,2734.621157,3.5077929,1,63,1,1,1,1,3,1,0,2.0,-1.1412993,311094.0,314604.0,312471.0,0.0,312471.0,0.0,311612.0,313604.0,311613.0,314604.0,313611.0,314604.0,3510.0,519.0,2991.0,993.0,1992.0,-1140.0
63,2738.145624,3.5078466,1,64,1,2,2,1,5,2,-5,1.0,-0.941281,314619.0,318128.0,316195.0,316195.0,0.0,0.0,315137.0,317129.0,315137.0,318128.0,317136.0,318129.0,3509.0,518.0,2991.0,993.0,1992.0,-941.0
64,2741.661801,3.5078309,1,65,1,2,2,2,2,1,-110,1.0,-0.9746197,318135.0,321645.0,319679.0,319679.0,0.0,0.0,318653.0,320644.0,318653.0,321645.0,320651.0,321645.0,3510.0,518.0,2992.0,994.0,1991.0,-972.0
65,2745.178143,3.5076482,1,66,1,1,1,2,1,2,-105,2.0,-0.2659103,321652.0,325161.0,323904.0,0.0,323904.0,0.0,322169.0,324160.0,322169.0,325161.0,324167.0,325161.0,3509.0,517.0,2992.0,994.0,1991.0,-263.0
66,2748.694118,3.5078291,1,67,1,1,2,1,2,2,0,2.0,-0.8664993,325167.0,328676.0,326819.0,0.0,326819.0,0.0,325686.0,327677.0,325686.0,328676.0,327684.0,328677.0,3509.0,519.0,2990.0,993.0,1991.0,-865.0
67,2752.210278,3.5078329,1,68,1,1,2,2,5,2,-110,1.0,-0.9247683,328683.0,332193.0,330277.0,330277.0,0.0,0.0,329202.0,331193.0,329202.0,332193.0,331200.0,332193.0,3510.0,519.0,2991.0,993.0,1991.0,-923.0
68,2755.726443,3.5078447,1,69,1,1,1,2,1,1,-105,2.0,-0.7996406,332200.0,335709.0,333918.0,0.0,333918.0,0.0,332718.0,334709.0,332719.0,335709.0,334716.0,335709.0,3509.0,519.0,2990.0,993.0,1991.0,-798.0
69,2759.242638,3.5078196,1,70,1,1,1,2,1,1,-110,2.0,-0.9747977,335716.0,339225.0,337259.0,0.0,337259.0,0.0,336234.0,338226.0,336234.0,339225.0,338232.0,339225.0,3509.0,518.0,2991.0,993.0,1992.0,-973.0
70,2762.758788,3.5078463,1,71,1,1,1,2,2,2,-115,2.0,-0.9829345,339232.0,342741.0,340766.0,0.0,340766.0,0.0,339750.0,341742.0,339750.0,342742.0,341748.0,342742.0,3509.0,518.0,2992.0,994.0,1992.0,-982.0
71,2766.274967,3.5078306,1,72,1,1,2,1,4,1,-5,1.0,-0.7413164,342748.0,346258.0,344525.0,344525.0,0.0,0.0,343266.0,345257.0,343266.0,346258.0,345264.0,346258.0,3510.0,518.0,2992.0,994.0,1991.0,-739.0
72,2769.791293,3.5076573,1,73,1,2,2,2,5,1,-120,1.0,-0.1499245,346265.0,349774.0,348633.0,348633.0,0.0,0.0,346783.0,348775.0,346783.0,349774.0,348781.0,349774.0,3509.0,518.0,2991.0,993.0,1992.0,-148.0
73,2773.307282,3.5078294,1,74,1,1,2,1,4,1,0,2.0,-0.1914214,349780.0,353289.0,352107.0,0.0,352107.0,0.0,350299.0,352290.0,350299.0,353290.0,352297.0,353290.0,3509.0,519.0,2991.0,993.0,1991.0,-190.0
74,2776.823449,3.5078358,1,75,1,1,2,1,5,1,-5,1.0,-1.2496091,353297.0,356806.0,354565.0,354565.0,0.0,0.0,353815.0,355806.0,353815.0,356806.0,355813.0,356806.0,3509.0,518.0,2991.0,993.0,1991.0,-1248.0
75,2780.347958,3.5078321,1,76,1,1,1,2,1,2,-115,1.0,-0.6080407,356823.0,360330.0,358731.0,358731.0,0.0,0.0,357340.0,359331.0,357340.0,360330.0,359337.0,360330.0,3507.0,517.0,2990.0,993.0,1991.0,-606.0
76,2783.864121,3.5077889,1,77,1,2,2,1,4,1,0,2.0,-1.1078562,360337.0,363847.0,361748.0,0.0,361748.0,0.0,360855.0,362847.0,360855.0,363847.0,362853.0,363847.0,3510.0,518.0,2992.0,994.0,1992.0,-1105.0
77,2787.380396,3.5077065,1,78,1,2,2,1,5,1,-5,1.0,-0.8580919,363854.0,367363.0,365513.0,365513.0,0.0,0.0,364371.0,366363.0,364371.0,367363.0,366370.0,367363.0,3509.0,517.0,2992.0,993.0,1992.0,-857.0
78,2790.896435,3.5078474,1,79,1,2,2,2,5,1,-110,2.0,0.2086273,367369.0,370879.0,370095.0,0.0,370095.0,0.0,367888.0,369880.0,367888.0,370879.0,369886.0,370879.0,3510.0,519.0,2991.0,993.0,1992.0,209.0
79,2794.412601,3.507814,1,80,1,2,2,2,3,2,-115,2.0,-0.1996632,370886.0,374395.0,373204.0,0.0,373204.0,0.0,371404.0,373395.0,371404.0,374396.0,373402.0,374396.0,3509.0,518.0,2992.0,994.0,1991.0,-198.0
80,2797.928732,3.5078801,1,81,1,1,2,2,1,1,-120,1.0,-0.8579455,374402.0,377911.0,376062.0,376062.0,0.0,0.0,374920.0,376911.0,374920.0,377911.0,376918.0,377911.0,3509.0,518.0,2991.0,993.0,1991.0,-856.0
81,2801.444919,3.5078239,1,82,1,1,1,2,2,2,-115,1.0,0.0169475,377918.0,381427.0,380452.0,380452.0,0.0,0.0,378436.0,380428.0,378437.0,381427.0,380434.0,381427.0,3509.0,519.0,2990.0,993.0,1992.0,18.0
82,2804.961074,3.5078503,1,83,1,2,2,2,5,1,-110,2.0,-0.8079627,381434.0,384943.0,383144.0,0.0,383144.0,0.0,381952.0,383944.0,381952.0,384944.0,383950.0,384944.0,3509.0,518.0,2992.0,994.0,1992.0,-806.0
83,2808.477259,3.5078175,1,84,1,1,1,2,3,2,-115,1.0,-0.424744,384950.0,388460.0,387043.0,387043.0,0.0,0.0,385468.0,387460.0,385468.0,388460.0,387466.0,388460.0,3510.0,518.0,2992.0,994.0,1992.0,-423.0
84,2811.993441,3.5078102,1,85,1,2,2,2,2,2,-110,2.0,-0.8746548,388466.0,391976.0,390110.0,0.0,390110.0,0.0,388984.0,390975.0,388984.0,391976.0,390983.0,391976.0,3510.0,518.0,2992.0,993.0,1991.0,-873.0
85,2815.5096,3.5078212,1,86,1,2,2,1,5,2,0,2.0,-0.5244039,391982.0,395492.0,393976.0,0.0,393976.0,0.0,392501.0,394492.0,392501.0,395493.0,394499.0,395493.0,3510.0,519.0,2992.0,994.0,1991.0,-523.0
86,2819.025886,3.5077112,1,87,1,2,1,2,2,1,-115,2.0,-0.5163646,395499.0,399008.0,397500.0,0.0,397500.0,0.0,396017.0,398008.0,396017.0,399008.0,398015.0,399008.0,3509.0,518.0,2991.0,993.0,1991.0,-515.0
87,2822.541928,3.5078036,1,88,1,1,1,2,5,1,-120,1.0,-0.5162845,399015.0,402524.0,401017.0,401017.0,0.0,0.0,399533.0,401524.0,399533.0,402524.0,401531.0,402524.0,3509.0,518.0,2991.0,993.0,1991.0,-514.0
88,2826.05828,3.5076347,1,89,1,2,2,1,4,1,-5,1.0,-0.8329281,402531.0,406040.0,404216.0,404216.0,0.0,0.0,403049.0,405041.0,403049.0,406040.0,405047.0,406040.0,3509.0,518.0,2991.0,993.0,1992.0,-831.0
89,2829.574249,3.5078498,1,90,1,2,2,1,5,2,0,2.0,-0.249739,406047.0,409556.0,408315.0,0.0,408315.0,0.0,406565.0,408557.0,406565.0,409557.0,408563.0,409557.0,3509.0,518.0,2992.0,994.0,1992.0,-248.0
90,2833.09043,3.5078021,1,91,1,2,1,1,4,2,-5,1.0,-0.2997595,409563.0,413073.0,411781.0,411781.0,0.0,0.0,410081.0,412072.0,410081.0,413073.0,412079.0,413073.0,3510.0,518.0,2992.0,994.0,1991.0,-298.0
91,2836.60659,3.5078208,1,92,1,2,1,1,4,2,0,2.0,-0.6907688,413079.0,416589.0,414907.0,0.0,414907.0,0.0,413597.0,415588.0,413598.0,416589.0,415596.0,416589.0,3510.0,519.0,2991.0,993.0,1991.0,-689.0
92,2840.122744,3.5078296,1,93,1,1,1,1,5,2,-5,1.0,-0.8162894,416595.0,420105.0,418297.0,418297.0,0.0,0.0,417114.0,419105.0,417114.0,420106.0,419112.0,420106.0,3510.0,519.0,2992.0,994.0,1991.0,-815.0
93,2843.638904,3.499501,1,94,1,2,2,2,4,2,-115,2.0,0.1169582,420112.0,423613.0,422738.0,0.0,422738.0,0.0,420622.0,422613.0,420622.0,423613.0,422620.0,423613.0,3501.0,510.0,2991.0,993.0,1991.0,118.0
94,2847.146738,3.5078197,1,95,1,1,2,1,2,2,0,1.0,0.2999961,423619.0,427129.0,426437.0,426437.0,0.0,0.0,424137.0,426130.0,424137.0,427129.0,426136.0,427129.0,3510.0,518.0,2992.0,993.0,1993.0,301.0
95,2850.663026,3.5078305,1,96,1,2,1,1,1,1,5,2.0,-0.4664649,427136.0,430645.0,429187.0,0.0,429187.0,0.0,427654.0,429645.0,427654.0,430646.0,429652.0,430646.0,3509.0,518.0,2992.0,994.0,1991.0,-465.0
96,2854.179064,3.5078354,1,97,1,2,1,1,2,2,0,2.0,-0.3746594,430652.0,434161.0,432795.0,0.0,432795.0,0.0,431170.0,433161.0,431170.0,434162.0,433168.0,434162.0,3509.0,518.0,2992.0,994.0,1991.0,-373.0
97,2857.695227,3.5079719,1,98,1,1,1,1,1,2,-5,1.0,-0.7163195,434168.0,437678.0,435970.0,435970.0,0.0,0.0,434686.0,436677.0,434686.0,437678.0,436684.0,437678.0,3510.0,518.0,2992.0,994.0,1991.0,-714.0
98,2861.211476,3.5077564,1,99,1,2,2,1,2,1,0,2.0,-0.4330307,437684.0,441193.0,439769.0,0.0,439769.0,0.0,438203.0,440194.0,438203.0,441194.0,440200.0,441194.0,3509.0,519.0,2991.0,994.0,1991.0,-431.0
99,2864.727695,3.5077077,1,100,1,1,2,2,3,2,-120,1.0,-0.8746617,441201.0,444709.0,442843.0,442843.0,0.0,0.0,441718.0,443710.0,441718.0,444709.0,443716.0,444710.0,3508.0,517.0,2991.0,994.0,1992.0,-873.0
100,3055.200441,3.7327003,2,1,1,2,2,2,2,2,-65,n/a,n/a,631674.0,635406.0,0.0,0.0,0.0,0.0,632415.0,634407.0,632415.0,635407.0,634413.0,635407.0,3732.0,741.0,2992.0,994.0,1992.0,-634413.0
101,3058.941489,3.5078406,2,2,1,1,2,1,3,2,-15,1.0,-0.3829722,635413.0,638922.0,637548.0,637548.0,0.0,0.0,635931.0,637923.0,635931.0,638923.0,637930.0,638923.0,3509.0,518.0,2992.0,993.0,1992.0,-382.0
102,3062.457664,3.5078192,2,3,1,1,2,1,3,2,-10,1.0,-0.7244818,638929.0,642439.0,640723.0,640723.0,0.0,0.0,639447.0,641438.0,639447.0,642439.0,641445.0,642439.0,3510.0,518.0,2992.0,994.0,1991.0,-722.0
103,3065.973815,3.5078453,2,4,1,2,2,1,4,1,-5,1.0,-0.0995775,642445.0,645955.0,644864.0,644864.0,0.0,0.0,642963.0,644954.0,642964.0,645956.0,644962.0,645956.0,3510.0,519.0,2992.0,994.0,1991.0,-98.0
104,3069.498461,3.5160414,2,5,1,1,2,1,3,2,0,2.0,-0.582816,645973.0,649488.0,647913.0,0.0,647913.0,0.0,646497.0,648488.0,646498.0,649489.0,648495.0,649490.0,3515.0,525.0,2991.0,995.0,1991.0,-582.0
105,3073.031302,3.5076975,2,6,1,2,2,1,5,2,-5,1.0,-0.0491004,649504.0,653012.0,651971.0,651971.0,0.0,0.0,650021.0,652012.0,650021.0,653012.0,652019.0,653012.0,3508.0,517.0,2991.0,993.0,1991.0,-48.0
106,3076.54732,3.5078251,2,7,1,1,1,2,1,2,-65,2.0,-0.5828379,653019.0,656528.0,654954.0,0.0,654954.0,0.0,653536.0,655528.0,653536.0,656528.0,655535.0,656528.0,3509.0,517.0,2992.0,993.0,1992.0,-581.0
107,3080.063603,3.5077081,2,8,1,2,2,2,5,2,-70,2.0,0.0510277,656535.0,660044.0,659104.0,0.0,659104.0,0.0,657053.0,659045.0,657053.0,660044.0,659051.0,660045.0,3509.0,518.0,2991.0,994.0,1992.0,53.0
108,3083.579697,3.507793,2,9,1,1,1,1,3,2,0,2.0,-0.616234,660051.0,663561.0,661952.0,0.0,661952.0,0.0,660569.0,662561.0,660569.0,663561.0,662567.0,663561.0,3510.0,518.0,2992.0,994.0,1992.0,-615.0
109,3087.095806,3.5078054,2,10,1,2,2,1,4,2,-5,1.0,-0.5738437,663567.0,667077.0,665512.0,665512.0,0.0,0.0,664085.0,666076.0,664085.0,667077.0,666083.0,667077.0,3510.0,518.0,2992.0,994.0,1991.0,-571.0
110,3090.611971,3.5078275,2,11,1,2,1,1,4,2,0,2.0,-0.5739213,667083.0,670593.0,669028.0,0.0,669028.0,0.0,667602.0,669593.0,667602.0,670593.0,669600.0,670593.0,3510.0,519.0,2991.0,993.0,1991.0,-572.0
111,3094.12813,3.5078352,2,12,1,2,2,1,2,2,-5,1.0,-0.4248044,670599.0,674109.0,672693.0,672693.0,0.0,0.0,671118.0,673109.0,671118.0,674109.0,673116.0,674109.0,3510.0,519.0,2991.0,993.0,1991.0,-423.0
112,3097.64439,3.5077506,2,13,1,1,2,1,5,2,0,2.0,-0.4913497,674116.0,677625.0,676142.0,0.0,676142.0,0.0,674634.0,676625.0,674634.0,677625.0,676632.0,677625.0,3509.0,518.0,2991.0,993.0,1991.0,-490.0
113,3101.160465,3.507825,2,14,1,2,2,2,1,1,-75,2.0,-0.2248406,677632.0,681141.0,679925.0,0.0,679925.0,0.0,678149.0,680142.0,678150.0,681141.0,680148.0,681141.0,3509.0,518.0,2991.0,993.0,1993.0,-223.0
114,3104.676661,3.507778,2,15,1,1,1,1,1,1,-5,1.0,-0.4664655,681148.0,684657.0,683199.0,683199.0,0.0,0.0,681666.0,683658.0,681666.0,684658.0,683664.0,684658.0,3509.0,518.0,2992.0,994.0,1992.0,-465.0
115,3108.192756,3.5078618,2,16,1,2,1,1,3,2,0,2.0,-0.4330398,684664.0,688174.0,686748.0,0.0,686748.0,0.0,685182.0,687173.0,685182.0,688174.0,687180.0,688174.0,3510.0,518.0,2992.0,994.0,1991.0,-432.0
116,3111.70895,3.508023503,2,17,1,1,1,1,2,2,-5,1.0,-0.0914236,688180.0,691690.0,690606.0,690606.0,0.0,0.0,688698.0,690689.0,688698.0,691690.0,690696.0,691690.0,3510.0,518.0,2992.0,994.0,1991.0,-90.0
117,3115.225097,3.5078679,2,18,1,1,2,2,4,2,-80,2.0,-0.2497395,691696.0,695205.0,693965.0,0.0,693965.0,0.0,692215.0,694206.0,692215.0,695206.0,694213.0,695206.0,3509.0,519.0,2991.0,993.0,1991.0,-248.0
118,3118.741372,3.5077331,2,19,1,1,1,1,5,1,0,2.0,-0.1080972,695213.0,698722.0,697622.0,0.0,697622.0,0.0,695731.0,697722.0,695731.0,698722.0,697729.0,698722.0,3509.0,518.0,2991.0,993.0,1991.0,-107.0
119,3122.257442,3.5078451,2,20,1,1,1,2,2,2,-85,2.0,-0.0164366,698729.0,702238.0,701230.0,0.0,701230.0,0.0,699246.0,701237.0,699246.0,702238.0,701246.0,702238.0,3509.0,517.0,2992.0,992.0,1991.0,-16.0
120,3125.773607,3.5078299,2,21,1,2,1,1,1,1,-5,1.0,-0.6247142,702245.0,705754.0,704138.0,704138.0,0.0,0.0,702763.0,704755.0,702763.0,705754.0,704761.0,705755.0,3509.0,518.0,2991.0,994.0,1992.0,-623.0
121,3129.289908,3.5076865,2,22,1,2,1,2,2,2,-90,2.0,-0.2580761,705761.0,709270.0,708021.0,0.0,708021.0,0.0,706279.0,708271.0,706279.0,709271.0,708277.0,709271.0,3509.0,518.0,2992.0,994.0,1992.0,-256.0
122,3132.80591,3.5079586,2,23,1,2,1,2,3,2,-95,2.0,-0.357946,709277.0,712787.0,711437.0,0.0,711437.0,0.0,709795.0,711786.0,709795.0,712787.0,711793.0,712787.0,3510.0,518.0,2992.0,994.0,1991.0,-356.0
123,3136.322106,3.5078186,2,24,1,1,1,1,4,2,0,2.0,-0.7075229,712793.0,716302.0,714604.0,0.0,714604.0,0.0,713311.0,715303.0,713311.0,716302.0,715310.0,716302.0,3509.0,518.0,2991.0,992.0,1992.0,-706.0
124,3139.838256,3.5078454,2,25,1,2,1,2,3,1,-100,2.0,-0.3580664,716309.0,719818.0,718469.0,0.0,718469.0,0.0,716828.0,718819.0,716828.0,719818.0,718826.0,719818.0,3509.0,519.0,2990.0,992.0,1991.0,-357.0
125,3143.354426,3.5078434,2,26,1,2,1,1,5,1,-5,1.0,-0.9330877,719825.0,723335.0,721411.0,721411.0,0.0,0.0,720343.0,722335.0,720343.0,723335.0,722342.0,723335.0,3510.0,518.0,2992.0,993.0,1992.0,-931.0
126,3146.870586,3.5078307,2,27,1,2,2,2,4,1,-105,2.0,-0.4748566,723342.0,726851.0,725385.0,0.0,725385.0,0.0,723859.0,725851.0,723859.0,726851.0,725858.0,726851.0,3509.0,517.0,2992.0,993.0,1992.0,-473.0
127,3150.386749,3.5078283,2,28,1,1,2,1,5,1,0,1.0,-0.3824861,726858.0,730367.0,728993.0,728993.0,0.0,0.0,727376.0,729368.0,727376.0,730367.0,729374.0,730367.0,3509.0,518.0,2991.0,993.0,1992.0,-381.0
128,3153.90301,3.5077169,2,29,1,1,1,1,1,2,5,1.0,-0.1914995,730374.0,733884.0,732700.0,732700.0,0.0,0.0,730892.0,732883.0,730892.0,733884.0,732890.0,733884.0,3510.0,518.0,2992.0,994.0,1991.0,-190.0
129,3157.41906,3.5079441,2,30,1,2,2,2,5,2,-110,2.0,-0.1659841,733890.0,737400.0,736242.0,0.0,736242.0,0.0,734408.0,736399.0,734408.0,737400.0,736406.0,737400.0,3510.0,518.0,2992.0,994.0,1991.0,-164.0
130,3160.935228,3.5078263,2,31,1,1,2,1,1,2,10,2.0,-0.6330357,737406.0,740915.0,739291.0,0.0,739291.0,0.0,737925.0,739916.0,737925.0,740915.0,739922.0,740916.0,3509.0,519.0,2990.0,994.0,1991.0,-631.0
131,3164.451522,3.5077126,2,32,1,2,2,1,2,1,5,2.0,-0.0914496,740923.0,744432.0,743349.0,0.0,743349.0,0.0,741441.0,743432.0,741441.0,744432.0,743439.0,744432.0,3509.0,518.0,2991.0,993.0,1991.0,-90.0
132,3167.9677,3.5077125,2,33,1,1,1,2,4,2,-115,1.0,-0.674622,744439.0,747948.0,746281.0,746281.0,0.0,0.0,744956.0,746948.0,744956.0,747948.0,746955.0,747948.0,3509.0,517.0,2992.0,993.0,1992.0,-674.0
133,3171.483725,3.5079693,2,34,1,2,2,2,4,2,-110,2.0,-0.2497436,747955.0,751464.0,750223.0,0.0,750223.0,0.0,748472.0,750464.0,748472.0,751464.0,750471.0,751465.0,3509.0,517.0,2992.0,994.0,1992.0,-248.0
134,3174.999922,3.5078072,2,35,1,2,1,1,1,2,0,2.0,-0.5996432,751471.0,754980.0,753389.0,0.0,753389.0,0.0,751989.0,753980.0,751989.0,754980.0,753987.0,754981.0,3509.0,518.0,2991.0,994.0,1991.0,-598.0
135,3178.516066,3.5078508,2,36,1,2,1,2,2,1,-115,1.0,-0.3747213,754987.0,758497.0,757130.0,757130.0,0.0,0.0,755505.0,757496.0,755505.0,758497.0,757503.0,758497.0,3510.0,518.0,2992.0,994.0,1991.0,-373.0
136,3182.032239,3.507817,2,37,1,1,1,1,4,2,-5,2.0,-0.3158019,758503.0,762012.0,760706.0,0.0,760706.0,0.0,759021.0,761012.0,759021.0,762012.0,761019.0,762012.0,3509.0,518.0,2991.0,993.0,1991.0,-313.0
137,3185.548458,3.5077733,2,38,1,1,1,2,4,1,-110,1.0,-0.0997861,762019.0,765528.0,764437.0,764437.0,0.0,0.0,762538.0,764529.0,762538.0,765528.0,764536.0,765528.0,3509.0,519.0,2990.0,992.0,1991.0,-99.0
138,3189.064551,3.5078364,2,39,1,2,2,1,5,1,-10,1.0,-0.449832,765535.0,769045.0,767603.0,767603.0,0.0,0.0,766053.0,768045.0,766053.0,769045.0,768052.0,769045.0,3510.0,518.0,2992.0,993.0,1992.0,-449.0
139,3192.580716,3.5078466,2,40,1,2,2,1,3,2,-5,1.0,-0.4913872,769051.0,772561.0,771078.0,771078.0,0.0,0.0,769569.0,771561.0,769569.0,772561.0,771568.0,772561.0,3510.0,518.0,2992.0,993.0,1992.0,-490.0
140,3196.096883,3.5078374,2,41,1,2,2,2,5,2,-105,2.0,-0.4579563,772568.0,776077.0,774628.0,0.0,774628.0,0.0,773086.0,775077.0,773086.0,776077.0,775084.0,776078.0,3509.0,518.0,2991.0,994.0,1991.0,-456.0
141,3199.613172,3.5077279,2,42,1,2,2,2,5,2,-110,2.0,-0.2331558,776084.0,779593.0,778368.0,0.0,778368.0,0.0,776602.0,778593.0,776602.0,779593.0,778600.0,779594.0,3509.0,518.0,2991.0,994.0,1991.0,-232.0
142,3203.129231,3.5078095,2,43,1,2,1,2,4,2,-115,1.0,-0.116531,779600.0,783110.0,782001.0,782001.0,0.0,0.0,780118.0,782109.0,780118.0,783110.0,782116.0,783110.0,3510.0,518.0,2992.0,994.0,1991.0,-115.0
143,3206.645362,3.5078307,2,44,1,2,2,2,1,1,-110,2.0,-0.4165298,783116.0,786625.0,785218.0,0.0,785218.0,0.0,783634.0,785626.0,783635.0,786625.0,785633.0,786625.0,3509.0,519.0,2990.0,992.0,1992.0,-415.0
144,3210.161527,3.4995169,2,45,1,2,2,2,1,2,-115,2.0,0.0753158,786632.0,790133.0,789217.0,0.0,789217.0,0.0,787143.0,789134.0,787143.0,790133.0,789140.0,790133.0,3501.0,511.0,2990.0,993.0,1991.0,77.0
145,3213.669345,3.5078731,2,46,1,1,1,1,1,1,0,1.0,-0.5496541,790140.0,793650.0,792108.0,792108.0,0.0,0.0,790658.0,792649.0,790658.0,793650.0,792656.0,793650.0,3510.0,518.0,2992.0,994.0,1991.0,-548.0
146,3217.185552,3.5077974,2,47,1,1,2,1,4,1,5,2.0,-0.5413591,793656.0,797166.0,795633.0,0.0,795633.0,0.0,794174.0,796166.0,794175.0,797166.0,796172.0,797166.0,3510.0,519.0,2991.0,994.0,1992.0,-539.0
147,3220.701823,3.5077083,2,48,1,1,1,1,5,2,0,2.0,-0.7331747,797173.0,800681.0,798957.0,0.0,798957.0,0.0,797691.0,799682.0,797691.0,800681.0,799689.0,800681.0,3508.0,518.0,2990.0,992.0,1991.0,-732.0
148,3224.217867,3.5078302,2,49,1,1,1,2,1,2,-120,1.0,-0.474616,800688.0,804198.0,802731.0,802731.0,0.0,0.0,801207.0,803198.0,801207.0,804198.0,803205.0,804198.0,3510.0,519.0,2991.0,993.0,1991.0,-474.0
149,3227.734032,3.5078173,2,50,1,1,1,2,2,2,-115,1.0,-0.166558,804205.0,807714.0,806557.0,806557.0,0.0,0.0,804723.0,806714.0,804723.0,807714.0,806721.0,807714.0,3509.0,518.0,2991.0,993.0,1991.0,-164.0
150,3231.250211,3.5078186,2,51,1,1,1,1,4,1,-5,1.0,-0.4663948,807721.0,811230.0,809772.0,809772.0,0.0,0.0,808239.0,810231.0,808239.0,811230.0,810237.0,811230.0,3509.0,518.0,2991.0,993.0,1992.0,-465.0
151,3234.766362,3.5078333,2,52,1,1,1,2,4,1,-110,1.0,-0.3746015,811237.0,814746.0,813380.0,813380.0,0.0,0.0,811755.0,813747.0,811755.0,814746.0,813753.0,814747.0,3509.0,518.0,2991.0,994.0,1992.0,-373.0
152,3238.282483,3.5078896,2,53,1,2,2,1,3,2,0,2.0,-0.0747623,814753.0,818263.0,817196.0,0.0,817196.0,0.0,815271.0,817262.0,815271.0,818263.0,817269.0,818263.0,3510.0,518.0,2992.0,994.0,1991.0,-73.0
153,3241.798704,3.5078145,2,54,1,2,2,2,2,1,-105,2.0,0.2918705,818269.0,821778.0,821078.0,0.0,821078.0,0.0,818787.0,820779.0,818787.0,821778.0,820785.0,821779.0,3509.0,518.0,2991.0,994.0,1992.0,293.0
154,3245.31503,3.5076769,2,55,1,2,2,1,4,2,-5,1.0,-0.5830417,821786.0,825294.0,823720.0,823720.0,0.0,0.0,822304.0,824295.0,822304.0,825295.0,824302.0,825295.0,3508.0,518.0,2991.0,993.0,1991.0,-582.0
155,3248.831163,3.5077046,2,56,1,1,1,1,5,2,0,2.0,-1.1330181,825302.0,828811.0,826687.0,0.0,826687.0,0.0,825819.0,827811.0,825819.0,828811.0,827818.0,828811.0,3509.0,517.0,2992.0,993.0,1992.0,-1131.0
156,3252.347333,3.5076683,2,57,1,1,1,1,4,1,-5,1.0,-0.9162152,828818.0,832327.0,830419.0,830419.0,0.0,0.0,829335.0,831327.0,829335.0,832327.0,831334.0,832327.0,3509.0,517.0,2992.0,993.0,1992.0,-915.0
157,3255.863337,3.5079562,2,58,1,1,1,2,2,1,-110,2.0,-0.474703,832334.0,835843.0,834377.0,0.0,834377.0,0.0,832852.0,834844.0,832852.0,835843.0,834850.0,835843.0,3509.0,518.0,2991.0,993.0,1992.0,-473.0
158,3259.379501,3.5078327,2,59,1,2,2,2,3,1,-115,1.0,-0.2915266,835850.0,839360.0,838076.0,838076.0,0.0,0.0,836368.0,838359.0,836368.0,839360.0,838366.0,839360.0,3510.0,518.0,2992.0,994.0,1991.0,-290.0
159,3262.8958,3.507835,2,60,1,2,1,1,3,2,0,2.0,-0.5663802,839366.0,842876.0,841318.0,0.0,841318.0,0.0,839884.0,841875.0,839884.0,842876.0,841882.0,842876.0,3510.0,518.0,2992.0,994.0,1991.0,-564.0
160,3266.420204,3.5077958,2,61,1,2,1,1,5,1,-5,1.0,-0.7082023,842891.0,846400.0,844700.0,844700.0,0.0,0.0,843409.0,845400.0,843409.0,846400.0,845407.0,846401.0,3509.0,518.0,2991.0,994.0,1991.0,-707.0
161,3269.936466,3.5077109,2,62,1,1,2,2,4,2,-110,2.0,-0.2330563,846407.0,849916.0,848691.0,0.0,848691.0,0.0,846925.0,848916.0,846925.0,849917.0,848923.0,849917.0,3509.0,518.0,2992.0,994.0,1991.0,-232.0
162,3273.452595,3.5077614,2,63,1,2,1,2,1,2,-115,1.0,-0.2497406,849923.0,853432.0,852191.0,852191.0,0.0,0.0,850441.0,852432.0,850441.0,853432.0,852439.0,853432.0,3509.0,518.0,2991.0,993.0,1991.0,-248.0
163,3276.968675,3.507833,2,64,1,2,2,2,4,1,-110,2.0,-0.4413559,853439.0,856948.0,855516.0,0.0,855516.0,0.0,853957.0,855949.0,853957.0,856948.0,855955.0,856949.0,3509.0,518.0,2991.0,994.0,1992.0,-439.0
164,3280.484989,3.5076783,2,65,1,2,1,1,4,1,0,1.0,0.1010428,856955.0,860464.0,859575.0,859575.0,0.0,0.0,857473.0,859465.0,857473.0,860465.0,859471.0,860465.0,3509.0,518.0,2992.0,994.0,1992.0,104.0
165,3284.001137,3.5077306,2,66,1,1,1,1,1,1,5,2.0,-0.8079925,860471.0,863981.0,862181.0,0.0,862181.0,0.0,860989.0,862981.0,860989.0,863981.0,862988.0,863981.0,3510.0,518.0,2992.0,993.0,1992.0,-807.0
166,3287.517386,3.5075862,2,67,1,2,2,2,2,2,-115,1.0,0.4499827,863988.0,867497.0,866955.0,866955.0,0.0,0.0,864505.0,866496.0,864505.0,867497.0,866504.0,867497.0,3509.0,517.0,2992.0,993.0,1991.0,451.0
167,3291.033334,3.5080065,2,68,1,2,1,2,5,1,-110,1.0,0.2584596,867504.0,871013.0,870280.0,870280.0,0.0,0.0,868022.0,870013.0,868022.0,871013.0,870020.0,871013.0,3509.0,518.0,2991.0,993.0,1991.0,260.0
168,3294.5495,3.5078334,2,69,1,1,1,2,2,1,-105,2.0,0.1168398,871020.0,874529.0,873654.0,0.0,873654.0,0.0,871538.0,873529.0,871538.0,874529.0,873536.0,874530.0,3509.0,518.0,2991.0,994.0,1991.0,118.0
169,3298.065664,3.5078521,2,70,1,2,1,1,2,2,0,2.0,-0.4996701,874536.0,878045.0,876554.0,0.0,876554.0,0.0,875054.0,877045.0,875054.0,878045.0,877052.0,878045.0,3509.0,518.0,2991.0,993.0,1991.0,-498.0
170,3301.581854,3.507798,2,71,1,2,2,1,2,2,-5,1.0,-0.6496841,878052.0,881561.0,879920.0,879920.0,0.0,0.0,878571.0,880562.0,878571.0,881561.0,880568.0,881562.0,3509.0,519.0,2990.0,994.0,1991.0,-648.0
171,3305.098131,3.507685,2,72,1,2,2,1,5,2,0,2.0,0.0584954,881568.0,885077.0,884144.0,0.0,884144.0,0.0,882086.0,884078.0,882086.0,885077.0,884084.0,885078.0,3509.0,518.0,2991.0,994.0,1992.0,60.0
172,3308.614143,3.5078254,2,73,1,1,2,1,1,1,-5,1.0,-0.5414089,885084.0,888594.0,887061.0,887061.0,0.0,0.0,885602.0,887594.0,885602.0,888594.0,887600.0,888594.0,3510.0,518.0,2992.0,994.0,1992.0,-539.0
173,3312.130322,3.5078027,2,74,1,1,1,2,5,2,-110,1.0,-0.4075065,888600.0,892110.0,890711.0,890711.0,0.0,0.0,889118.0,891110.0,889119.0,892110.0,891117.0,892110.0,3510.0,519.0,2991.0,993.0,1992.0,-406.0
174,3315.646472,3.5078518,2,75,1,1,1,1,1,2,0,2.0,-1.016196,892117.0,895626.0,893618.0,0.0,893618.0,0.0,892635.0,894626.0,892635.0,895627.0,894633.0,895627.0,3509.0,518.0,2992.0,994.0,1991.0,-1015.0
175,3319.162653,3.5078458,2,76,1,2,2,1,4,1,-5,1.0,-0.9996192,895633.0,899142.0,897151.0,897151.0,0.0,0.0,896151.0,898142.0,896151.0,899142.0,898149.0,899142.0,3509.0,518.0,2991.0,993.0,1991.0,-998.0
176,3322.678868,3.5077816,2,77,1,1,2,1,2,2,0,2.0,-0.9411829,899149.0,902658.0,900726.0,0.0,900726.0,0.0,899667.0,901658.0,899667.0,902658.0,901665.0,902658.0,3509.0,518.0,2991.0,993.0,1991.0,-939.0
177,3326.19498,3.5078373,2,78,1,1,2,2,1,2,-105,2.0,-0.3325316,902665.0,906174.0,904851.0,0.0,904851.0,0.0,903183.0,905175.0,903183.0,906174.0,905181.0,906174.0,3509.0,518.0,2991.0,993.0,1992.0,-330.0
178,3329.711147,3.5078239,2,79,1,1,2,1,1,1,-5,1.0,-0.4413753,906181.0,909691.0,908257.0,908257.0,0.0,0.0,906699.0,908691.0,906699.0,909691.0,908697.0,909691.0,3510.0,518.0,2992.0,994.0,1992.0,-440.0
179,3333.227481,3.5076481,2,80,1,2,2,2,3,1,-110,2.0,-0.6080205,909697.0,913207.0,911607.0,0.0,911607.0,0.0,910215.0,912206.0,910215.0,913207.0,912214.0,913207.0,3510.0,518.0,2992.0,993.0,1991.0,-607.0
180,3336.743627,3.5076961,2,81,1,1,2,1,3,1,0,2.0,-0.61635,913214.0,916723.0,915115.0,0.0,915115.0,0.0,913732.0,915723.0,913732.0,916723.0,915730.0,916723.0,3509.0,518.0,2991.0,993.0,1991.0,-615.0
181,3340.259647,3.5078327,2,82,1,2,2,2,3,2,-115,2.0,-0.2915549,916730.0,920238.0,918956.0,0.0,918956.0,0.0,917248.0,919239.0,917248.0,920238.0,919246.0,920239.0,3508.0,518.0,2990.0,993.0,1991.0,-290.0
182,3343.77581,3.5078706,2,83,1,1,2,1,2,2,-5,1.0,-0.1163963,920246.0,923755.0,922647.0,922647.0,0.0,0.0,920764.0,922755.0,920764.0,923755.0,922762.0,923755.0,3509.0,518.0,2991.0,993.0,1991.0,-115.0
183,3347.29199,3.5079584,2,84,1,1,2,2,4,1,-120,1.0,-0.3828279,923762.0,927271.0,925897.0,925897.0,0.0,0.0,924279.0,926271.0,924279.0,927271.0,926278.0,927271.0,3509.0,517.0,2992.0,993.0,1992.0,-381.0
184,3350.808127,3.5078449,2,85,1,2,2,1,1,2,0,2.0,-0.349536,927278.0,930787.0,929446.0,0.0,929446.0,0.0,927796.0,929788.0,927796.0,930787.0,929794.0,930788.0,3509.0,518.0,2991.0,994.0,1992.0,-348.0
185,3354.324304,3.5078267,2,86,1,2,2,2,5,2,-115,1.0,0.6084228,930794.0,934304.0,933921.0,933921.0,0.0,0.0,931312.0,933304.0,931312.0,934304.0,933310.0,934304.0,3510.0,518.0,2992.0,994.0,1992.0,611.0
186,3357.840455,3.5078303,2,87,1,2,2,2,5,2,-110,1.0,-0.3997021,934310.0,937820.0,936429.0,936429.0,0.0,0.0,934828.0,936819.0,934829.0,937820.0,936826.0,937820.0,3510.0,519.0,2991.0,994.0,1991.0,-397.0
187,3361.356622,3.5078444,2,88,1,1,1,1,2,1,-5,1.0,-0.3830698,937826.0,941336.0,939961.0,939961.0,0.0,0.0,938345.0,940336.0,938345.0,941336.0,940343.0,941336.0,3510.0,519.0,2991.0,993.0,1991.0,-382.0
188,3364.872797,3.4995045,2,89,1,2,2,2,2,1,-105,2.0,-0.258056,941343.0,944844.0,943594.0,0.0,943594.0,0.0,941853.0,943844.0,941853.0,944844.0,943850.0,944844.0,3501.0,510.0,2991.0,994.0,1991.0,-256.0
189,3368.380632,3.5078348,2,90,1,1,2,2,5,1,-110,1.0,-0.6242138,944850.0,948360.0,946745.0,946745.0,0.0,0.0,945368.0,947360.0,945368.0,948360.0,947367.0,948360.0,3510.0,518.0,2992.0,993.0,1992.0,-622.0
190,3371.896797,3.5078216,2,91,1,1,1,2,1,2,-105,2.0,0.0002658999997,948366.0,951876.0,950883.0,0.0,950883.0,0.0,948885.0,950876.0,948885.0,951876.0,950883.0,951876.0,3510.0,519.0,2991.0,993.0,1991.0,0.0
191,3375.412952,3.5078787,2,92,1,1,1,2,4,2,-110,1.0,0.0252422,951883.0,955393.0,954426.0,954426.0,0.0,0.0,952401.0,954392.0,952401.0,955393.0,954399.0,955393.0,3510.0,518.0,2992.0,994.0,1991.0,27.0
192,3378.929147,3.5078295,2,93,1,1,2,1,2,2,0,1.0,0.2839176,955399.0,958908.0,958201.0,958201.0,0.0,0.0,955917.0,957908.0,955917.0,958908.0,957915.0,958908.0,3509.0,518.0,2991.0,993.0,1991.0,286.0
193,3382.445265,3.5078647,2,94,1,2,2,2,4,2,-105,1.0,-0.0331063,958915.0,962424.0,961399.0,961399.0,0.0,0.0,959433.0,961425.0,959433.0,962424.0,961431.0,962424.0,3509.0,518.0,2991.0,993.0,1992.0,-32.0
194,3385.961461,3.5078376,2,95,1,2,1,1,4,2,5,1.0,-0.7080363,962431.0,965940.0,964241.0,964241.0,0.0,0.0,962949.0,964941.0,962949.0,965941.0,964948.0,965941.0,3509.0,518.0,2992.0,993.0,1992.0,-707.0
195,3389.477769,3.5076953,2,96,1,2,1,2,1,2,-100,2.0,-0.1247574,965948.0,969457.0,968340.0,0.0,968340.0,0.0,966465.0,968457.0,966465.0,969457.0,968463.0,969457.0,3509.0,517.0,2992.0,994.0,1992.0,-123.0
196,3392.993784,3.5078435,2,97,1,2,1,1,2,1,10,2.0,-0.7664559,969463.0,972973.0,971215.0,0.0,971215.0,0.0,969981.0,971973.0,969981.0,972973.0,971980.0,972973.0,3510.0,518.0,2992.0,993.0,1992.0,-765.0
197,3396.509956,3.5078454,2,98,1,1,1,1,2,2,5,2.0,-0.9579864,972980.0,976489.0,974539.0,0.0,974539.0,0.0,973498.0,975490.0,973498.0,976489.0,975496.0,976489.0,3509.0,518.0,2991.0,993.0,1992.0,-957.0
198,3400.026132,3.5078431,2,99,1,1,1,2,3,1,-105,2.0,-0.5995216,976496.0,980006.0,978414.0,0.0,978414.0,0.0,977014.0,979005.0,977014.0,980006.0,979012.0,980006.0,3510.0,518.0,2992.0,994.0,1991.0,-598.0
199,3403.542291,3.5078169,2,100,1,1,2,2,2,2,-110,1.0,-0.2830745,980012.0,983521.0,982246.0,982246.0,0.0,0.0,980530.0,982521.0,980530.0,983521.0,982528.0,983521.0,3509.0,518.0,2991.0,993.0,1991.0,-282.0
