,onset,duration,run_number,trial_number,task,ext_mot_pos,ext_mot_ver_dir,staircase_num,fix_off_prct,trial_type,ext_mot_ori,direction_report,response_duration,trial_onset,trial_offset,button_press_onset,button_left,button_right,fix_break,motion_onset,motion_offset,fixation_onset,fixation_offset,response_onset,response_offset,trial_duration,fix_check_duration,fixation_duration,response_duration,motion_duration,reaction_time
0,12662.97116,4.0326627,1,1,1,1,2,2,4,2,-65,1,-0.1494563,10239390.0,10243422.0,10242282.0,10242282.0,0.0,0.0,10240432.0,10242423.0,10240432.0,10243423.0,10242430.0,10243423.0,4032.0,1042.0,2991.0,993.0,1991.0,-148.0
1,12667.01218,3.8327416,1,2,1,2,2,1,1,1,-15,2,-1.1494646,10243430.0,10247264.0,10245123.0,0.0,10245123.0,0.0,10244273.0,10246264.0,10244273.0,10247264.0,10246271.0,10247264.0,3834.0,843.0,2991.0,993.0,1991.0,-1148.0
2,12670.85324,3.9994365,1,3,1,2,1,1,3,2,-20,1,-0.8911687,10247271.0,10251272.0,10249389.0,10249389.0,0.0,0.0,10248280.0,10250272.0,10248280.0,10251272.0,10250279.0,10251272.0,4001.0,1009.0,2992.0,993.0,1992.0,-890.0
3,12674.86102,3.5078361,1,4,1,2,2,2,5,1,-60,1,-0.1745745,10251279.0,10254788.0,10253622.0,10253622.0,0.0,0.0,10251796.0,10253788.0,10251797.0,10254788.0,10253795.0,10254789.0,3509.0,518.0,2991.0,994.0,1992.0,-173.0
4,12678.38565,3.5077565,1,5,1,2,2,2,5,2,-55,1,-0.3888897,10254805.0,10258313.0,10256932.0,10256932.0,0.0,0.0,10255322.0,10257313.0,10255323.0,10258314.0,10257320.0,10258315.0,3508.0,518.0,2991.0,995.0,1991.0,-388.0
5,12681.90168,3.8661293,1,6,1,1,1,2,2,2,-50,1,-0.6655929,10258319.0,10262186.0,10260530.0,10260530.0,0.0,0.0,10259196.0,10261187.0,10259196.0,10262187.0,10261194.0,10262187.0,3867.0,877.0,2991.0,993.0,1991.0,-664.0
6,12685.77614,3.5078304,1,7,1,1,2,1,1,1,-15,2,-1.0234273,10262193.0,10265703.0,10263688.0,0.0,10263688.0,0.0,10262712.0,10264703.0,10262712.0,10265703.0,10264710.0,10265703.0,3510.0,519.0,2991.0,993.0,1991.0,-1022.0
7,12689.29231,3.5078248,1,8,1,2,1,1,2,2,-20,2,-0.8245474,10265710.0,10269219.0,10267403.0,0.0,10267403.0,0.0,10266227.0,10268219.0,10266227.0,10269219.0,10268226.0,10269219.0,3509.0,517.0,2992.0,993.0,1992.0,-823.0
8,12692.80847,3.507828,1,9,1,2,1,1,3,1,-25,2,-1.0828644,10269226.0,10272735.0,10270661.0,0.0,10270661.0,0.0,10269744.0,10271736.0,10269744.0,10272736.0,10271742.0,10272736.0,3509.0,518.0,2992.0,994.0,1992.0,-1081.0
9,12696.32475,3.5076927,1,10,1,1,1,2,1,2,-45,1,-0.4740771,10272742.0,10276252.0,10274786.0,10274786.0,0.0,0.0,10273260.0,10275251.0,10273260.0,10276252.0,10275258.0,10276252.0,3510.0,518.0,2992.0,994.0,1991.0,-472.0
10,12699.84079,3.5078614,1,11,1,1,1,1,4,1,-30,1,-0.1659042,10276258.0,10279768.0,10278610.0,10278610.0,0.0,0.0,10276776.0,10278767.0,10276776.0,10279768.0,10278774.0,10279768.0,3510.0,518.0,2992.0,994.0,1991.0,-164.0
11,12703.35696,3.5161497,1,12,1,1,2,1,1,2,-25,2,-0.5389268,10279774.0,10283292.0,10281763.0,0.0,10281763.0,0.0,10280293.0,10282292.0,10280293.0,10283293.0,10282299.0,10283293.0,3518.0,519.0,3000.0,994.0,1999.0,-536.0
12,12706.88158,3.507699,1,13,1,1,1,2,1,2,-40,1,-0.8831005,10283299.0,10286808.0,10284933.0,10284933.0,0.0,0.0,10283817.0,10285808.0,10283817.0,10286809.0,10285815.0,10286809.0,3509.0,518.0,2992.0,994.0,1991.0,-882.0
13,12710.39774,3.5077054,1,14,1,1,1,1,5,1,-30,1,-0.8746337,10286815.0,10290324.0,10288458.0,10288458.0,0.0,0.0,10287333.0,10289324.0,10287333.0,10290324.0,10289331.0,10290324.0,3509.0,518.0,2991.0,993.0,1991.0,-873.0
14,12713.91376,3.5078522,1,15,1,1,2,2,1,2,-35,2,-1.0330655,10290331.0,10293840.0,10291816.0,0.0,10291816.0,0.0,10290850.0,10292841.0,10290850.0,10293840.0,10292848.0,10293840.0,3509.0,519.0,2990.0,992.0,1991.0,-1032.0
15,12717.42997,3.5078452,1,16,1,2,2,1,1,1,-25,2,-1.1912627,10293847.0,10297356.0,10295173.0,0.0,10295173.0,0.0,10294365.0,10296357.0,10294365.0,10297357.0,10296363.0,10297357.0,3509.0,518.0,2992.0,994.0,1992.0,-1190.0
16,12720.94614,3.5078122,1,17,1,1,2,1,5,1,-30,1,-1.0497493,10297363.0,10300873.0,10298832.0,10298832.0,0.0,0.0,10297881.0,10299873.0,10297881.0,10300873.0,10299880.0,10300873.0,3510.0,518.0,2992.0,993.0,1992.0,-1048.0
17,12724.46228,3.5077889,1,18,1,1,1,1,3,2,-25,2,-1.074328,10300879.0,10304389.0,10302323.0,0.0,10302323.0,0.0,10301397.0,10303388.0,10301397.0,10304389.0,10303396.0,10304389.0,3510.0,518.0,2992.0,993.0,1991.0,-1073.0
18,12727.97842,3.5078333,1,19,1,2,1,2,2,1,-40,2,-0.8741845,10304396.0,10307905.0,10306039.0,0.0,10306039.0,0.0,10304914.0,10306905.0,10304914.0,10307905.0,10306912.0,10307905.0,3509.0,518.0,2991.0,993.0,1991.0,-873.0
19,12731.49458,3.8744427,1,20,1,2,2,1,5,2,-30,2,-1.1829365,10307912.0,10311787.0,10309613.0,0.0,10309613.0,0.0,10308797.0,10310788.0,10308797.0,10311787.0,10310795.0,10311787.0,3875.0,885.0,2990.0,992.0,1991.0,-1182.0
20,12735.37736,3.507903,1,21,1,2,1,2,2,2,-45,2,-1.1829158,10311794.0,10315304.0,10313130.0,0.0,10313130.0,0.0,10312312.0,10314304.0,10312312.0,10315304.0,10314311.0,10315304.0,3510.0,518.0,2992.0,993.0,1992.0,-1181.0
21,12738.89355,3.5078156,1,22,1,2,1,2,5,2,-50,2,-0.7246321,10315311.0,10318820.0,10317104.0,0.0,10317104.0,0.0,10315828.0,10317820.0,10315828.0,10318820.0,10317827.0,10318820.0,3509.0,517.0,2992.0,993.0,1992.0,-723.0
22,12742.4097,3.4994993,1,23,1,1,1,2,5,2,-55,1,-0.816478,10318827.0,10322327.0,10320520.0,10320520.0,0.0,0.0,10319337.0,10321328.0,10319337.0,10322327.0,10321335.0,10322327.0,3500.0,510.0,2990.0,992.0,1991.0,-815.0
23,12745.91753,3.5078295,1,24,1,2,1,1,1,1,-35,2,-1.0579592,10322335.0,10325844.0,10323795.0,0.0,10323795.0,0.0,10322853.0,10324844.0,10322853.0,10325844.0,10324851.0,10325844.0,3509.0,518.0,2991.0,993.0,1991.0,-1056.0
24,12749.4337,3.5078461,1,25,1,2,1,2,3,1,-50,1,-0.8662732,10325851.0,10329360.0,10327503.0,10327503.0,0.0,0.0,10326369.0,10328360.0,10326369.0,10329360.0,10328367.0,10329360.0,3509.0,518.0,2991.0,993.0,1991.0,-864.0
25,12752.94989,3.5078067,1,26,1,1,2,1,3,2,-40,1,-1.0656607,10329367.0,10332876.0,10330819.0,10330819.0,0.0,0.0,10329885.0,10331877.0,10329885.0,10332876.0,10331883.0,10332877.0,3509.0,518.0,2991.0,994.0,1992.0,-1064.0
26,12756.4662,3.5243239,1,27,1,1,1,1,5,2,-35,1,-0.9164357,10332883.0,10336409.0,10334501.0,10334501.0,0.0,0.0,10333418.0,10335409.0,10333418.0,10336410.0,10335416.0,10336410.0,3526.0,535.0,2992.0,994.0,1991.0,-915.0
27,12759.99885,3.6244806,1,28,1,2,2,1,2,2,-30,2,-1.1830647,10336416.0,10340042.0,10337868.0,0.0,10337868.0,0.0,10337050.0,10339042.0,10337050.0,10340042.0,10339049.0,10340042.0,3626.0,634.0,2992.0,993.0,1992.0,-1181.0
28,12763.63166,3.5078438,1,29,1,2,1,1,4,1,-35,2,-0.9579681,10340049.0,10343558.0,10341608.0,0.0,10341608.0,0.0,10340566.0,10342559.0,10340566.0,10343558.0,10342565.0,10343559.0,3509.0,517.0,2992.0,994.0,1993.0,-957.0
29,12767.14796,3.5077104,1,30,1,2,1,1,3,1,-40,2,-0.8324702,10343565.0,10347074.0,10345250.0,0.0,10345250.0,0.0,10344083.0,10346074.0,10344083.0,10347075.0,10346081.0,10347075.0,3509.0,518.0,2992.0,994.0,1991.0,-831.0
30,12770.664,3.507846,1,31,1,2,1,1,1,1,-45,2,-0.6496968,10347081.0,10350591.0,10348949.0,0.0,10348949.0,0.0,10347599.0,10349590.0,10347599.0,10350591.0,10349597.0,10350591.0,3510.0,518.0,2992.0,994.0,1991.0,-648.0
31,12774.18018,3.5079704,1,32,1,1,1,1,4,1,-50,1,-0.5745213,10350597.0,10354107.0,10352541.0,10352541.0,0.0,0.0,10351115.0,10353106.0,10351115.0,10354107.0,10353113.0,10354107.0,3510.0,518.0,2992.0,994.0,1991.0,-572.0
32,12818.73215,3.5078108,1,33,1,2,2,2,2,2,-45,2,-0.9413448,10395149.0,10398658.0,10396725.0,0.0,10396725.0,0.0,10395667.0,10397658.0,10395667.0,10398658.0,10397665.0,10398658.0,3509.0,518.0,2991.0,993.0,1991.0,-940.0
33,12822.2483,3.5078159,1,34,1,2,1,2,4,2,-50,1,-0.9662859,10398665.0,10402175.0,10400217.0,10400217.0,0.0,0.0,10399183.0,10401174.0,10399183.0,10402175.0,10401181.0,10402175.0,3510.0,518.0,2992.0,994.0,1991.0,-964.0
34,12825.76443,3.5078864,1,35,1,1,1,2,1,2,-45,1,-1.1079741,10402181.0,10405691.0,10403591.0,10403591.0,0.0,0.0,10402699.0,10404690.0,10402699.0,10405691.0,10404697.0,10405691.0,3510.0,518.0,2992.0,994.0,1991.0,-1106.0
35,12829.28062,3.5078062,1,36,1,2,2,1,1,1,-45,2,-1.2246084,10405697.0,10409206.0,10406990.0,0.0,10406990.0,0.0,10406216.0,10408207.0,10406216.0,10409206.0,10408213.0,10409206.0,3509.0,519.0,2990.0,993.0,1991.0,-1223.0
36,12832.79675,3.99945,1,37,1,1,1,1,4,1,-50,1,-1.1242026,10409213.0,10413214.0,10411098.0,10411098.0,0.0,0.0,10410223.0,10412215.0,10410223.0,10413214.0,10412221.0,10413214.0,4001.0,1010.0,2991.0,993.0,1992.0,-1123.0
37,12836.80452,3.9994608,1,38,1,1,1,1,2,1,-45,1,-0.9329916,10413221.0,10417222.0,10415297.0,10415297.0,0.0,0.0,10414231.0,10416222.0,10414231.0,10417223.0,10416229.0,10417223.0,4001.0,1010.0,2992.0,994.0,1991.0,-932.0
38,12840.82902,3.5077788,1,39,1,2,1,2,3,1,-40,2,-1.0162119,10417247.0,10420755.0,10418747.0,0.0,10418747.0,0.0,10417763.0,10419755.0,10417763.0,10420755.0,10419762.0,10420755.0,3508.0,516.0,2992.0,993.0,1992.0,-1015.0
39,12844.34511,3.5078819,1,40,1,1,2,1,5,2,-40,2,-0.8914409,10420762.0,10424271.0,10422388.0,0.0,10422388.0,0.0,10421279.0,10423271.0,10421279.0,10424271.0,10423278.0,10424271.0,3509.0,517.0,2992.0,993.0,1992.0,-890.0
40,12847.86133,3.7661429,1,41,1,1,2,2,2,1,-45,1,-1.1247458,10424278.0,10428045.0,10425929.0,10425929.0,0.0,0.0,10425055.0,10427046.0,10425055.0,10428045.0,10427053.0,10428045.0,3767.0,777.0,2990.0,992.0,1991.0,-1124.0
41,12851.63581,3.7077881,1,42,1,1,2,2,3,1,-40,1,-0.9746351,10428052.0,10431761.0,10429795.0,10429795.0,0.0,0.0,10428771.0,10430762.0,10428771.0,10431762.0,10430768.0,10431762.0,3709.0,719.0,2991.0,994.0,1991.0,-973.0
42,12855.35206,3.5744499,1,43,1,2,2,1,1,1,-45,1,-0.8164786,10431769.0,10435345.0,10433537.0,10433537.0,0.0,0.0,10432353.0,10434344.0,10432353.0,10435345.0,10434352.0,10435345.0,3576.0,584.0,2992.0,993.0,1991.0,-815.0
43,12885.03934,3.9910955,1,44,1,2,1,2,1,1,-35,2,-0.8495886,10461455.0,10465448.0,10463607.0,0.0,10463607.0,0.0,10462456.0,10464448.0,10462457.0,10465448.0,10464455.0,10465448.0,3993.0,1002.0,2991.0,993.0,1992.0,-848.0
44,12889.03879,3.499514,1,45,1,1,1,2,3,2,-40,1,-0.80804,10465455.0,10468956.0,10467156.0,10467156.0,0.0,0.0,10465965.0,10467956.0,10465965.0,10468957.0,10467963.0,10468957.0,3501.0,510.0,2992.0,994.0,1991.0,-807.0
45,12892.54674,3.5077377,1,46,1,1,2,1,3,2,-40,1,-1.1823759,10468963.0,10472473.0,10470299.0,10470299.0,0.0,0.0,10469481.0,10471472.0,10469481.0,10472473.0,10471479.0,10472473.0,3510.0,518.0,2992.0,994.0,1991.0,-1180.0
46,12896.06282,3.5078216,1,47,1,1,1,1,5,1,-35,1,-1.2162689,10472479.0,10475988.0,10473781.0,10473781.0,0.0,0.0,10472997.0,10474988.0,10472997.0,10475988.0,10474995.0,10475988.0,3509.0,518.0,2991.0,993.0,1991.0,-1214.0
47,12899.57902,3.5077816,1,48,1,2,1,2,3,2,-35,2,-1.1991162,10475995.0,10479504.0,10477314.0,0.0,10477314.0,0.0,10476514.0,10478505.0,10476514.0,10479504.0,10478511.0,10479504.0,3509.0,519.0,2990.0,993.0,1991.0,-1197.0
48,12903.09514,3.5078365,1,49,1,1,2,2,3,2,-40,1,-1.049666,10479511.0,10483021.0,10480980.0,10480980.0,0.0,0.0,10480029.0,10482021.0,10480029.0,10483021.0,10482028.0,10483021.0,3510.0,518.0,2992.0,993.0,1992.0,-1048.0
49,12906.6113,3.5078586,1,50,1,1,1,1,1,2,-30,1,-0.5996682,10483027.0,10486537.0,10484946.0,10484946.0,0.0,0.0,10483545.0,10485537.0,10483545.0,10486537.0,10485544.0,10486537.0,3510.0,518.0,2992.0,993.0,1992.0,-598.0
50,12910.12749,3.5078339,1,51,1,2,1,2,4,1,-35,2,-0.8829836,10486543.0,10490053.0,10488178.0,0.0,10488178.0,0.0,10487062.0,10489053.0,10487062.0,10490053.0,10489060.0,10490053.0,3510.0,519.0,2991.0,993.0,1991.0,-882.0
51,12913.64365,3.5078209,1,52,1,2,2,1,4,2,-25,2,-1.157946,10490060.0,10493569.0,10491419.0,0.0,10491419.0,0.0,10490578.0,10492569.0,10490578.0,10493569.0,10492576.0,10493570.0,3509.0,518.0,2991.0,994.0,1991.0,-1157.0
52,12917.15981,3.507871,1,53,1,1,1,1,4,1,-30,2,-0.7831091,10493576.0,10497085.0,10495311.0,0.0,10495311.0,0.0,10494094.0,10496085.0,10494094.0,10497085.0,10496092.0,10497085.0,3509.0,518.0,2991.0,993.0,1991.0,-781.0
53,12920.6761,3.5077172,1,54,1,1,1,2,4,2,-40,2,-1.1081093,10497092.0,10500601.0,10498502.0,0.0,10498502.0,0.0,10497610.0,10499601.0,10497610.0,10500601.0,10499609.0,10500602.0,3509.0,518.0,2991.0,993.0,1991.0,-1107.0
54,12924.19227,3.8159869,1,55,1,1,2,2,1,2,-45,1,-1.0496912,10500608.0,10504426.0,10502385.0,10502385.0,0.0,0.0,10501435.0,10503426.0,10501435.0,10504426.0,10503433.0,10504426.0,3818.0,827.0,2991.0,993.0,1991.0,-1048.0
55,12928.0166,3.5078217,1,56,1,2,1,1,5,2,-35,2,-0.9412871,10504432.0,10507941.0,10506009.0,0.0,10506009.0,0.0,10504951.0,10506942.0,10504951.0,10507942.0,10506949.0,10507942.0,3509.0,519.0,2991.0,993.0,1991.0,-940.0
56,12931.53275,3.5078545,1,57,1,2,1,2,3,2,-40,2,-1.2828811,10507949.0,10511458.0,10509184.0,0.0,10509184.0,0.0,10508467.0,10510458.0,10508467.0,10511458.0,10510465.0,10511458.0,3509.0,518.0,2991.0,993.0,1991.0,-1281.0
57,12935.04894,3.5078301,1,58,1,1,1,2,4,2,-45,1,-0.7413473,10511465.0,10514974.0,10513241.0,10513241.0,0.0,0.0,10511982.0,10513975.0,10511982.0,10514974.0,10513981.0,10514974.0,3509.0,517.0,2992.0,993.0,1993.0,-740.0
58,12951.26331,3.9911023,1,59,1,1,1,1,1,2,-40,1,-1.0414714,10527679.0,10531672.0,10529639.0,10529639.0,0.0,0.0,10528680.0,10530672.0,10528681.0,10531672.0,10530679.0,10531672.0,3993.0,1002.0,2991.0,993.0,1992.0,-1040.0
59,12955.26275,3.5078344,1,60,1,1,1,1,3,1,-35,1,-0.6748787,10531678.0,10535188.0,10533522.0,10533522.0,0.0,0.0,10532197.0,10534188.0,10532197.0,10535188.0,10534195.0,10535188.0,3510.0,519.0,2991.0,993.0,1991.0,-673.0
60,12958.77891,3.5078361,1,61,1,1,2,2,5,2,-40,1,-1.0997691,10535194.0,10538704.0,10536612.0,10536612.0,0.0,0.0,10535713.0,10537704.0,10535713.0,10538704.0,10537711.0,10538704.0,3510.0,519.0,2991.0,993.0,1991.0,-1099.0
61,12962.29522,3.5077105,1,62,1,2,2,1,1,2,-30,2,-1.0163704,10538711.0,10542220.0,10540212.0,0.0,10540212.0,0.0,10539229.0,10541220.0,10539229.0,10542220.0,10541227.0,10542220.0,3509.0,518.0,2991.0,993.0,1991.0,-1015.0
62,12965.81125,3.5078302,1,63,1,2,1,1,5,1,-35,2,-1.0663366,10542227.0,10545736.0,10543678.0,0.0,10543678.0,0.0,10542745.0,10544737.0,10542745.0,10545736.0,10544743.0,10545737.0,3509.0,518.0,2991.0,994.0,1992.0,-1065.0
63,12969.32742,3.507851,1,64,1,1,2,1,3,2,-40,1,-1.2908243,10545743.0,10549252.0,10546971.0,10546971.0,0.0,0.0,10546261.0,10548253.0,10546261.0,10549253.0,10548259.0,10549253.0,3509.0,518.0,2992.0,994.0,1992.0,-1288.0
64,12972.84359,3.5078343,1,65,1,1,2,1,5,2,-35,1,-1.191273,10549259.0,10552769.0,10550586.0,10550586.0,0.0,0.0,10549777.0,10551769.0,10549777.0,10552769.0,10551775.0,10552769.0,3510.0,518.0,2992.0,994.0,1992.0,-1189.0
65,12976.35993,3.507873878,1,66,1,2,1,2,5,1,-35,2,-1.1747386,10552776.0,10556285.0,10554118.0,0.0,10554118.0,0.0,10553293.0,10555285.0,10553293.0,10556285.0,10555292.0,10556285.0,3509.0,517.0,2992.0,993.0,1992.0,-1174.0
66,12979.87592,3.9994381,1,67,1,1,2,2,3,1,-40,1,-1.2745931,10556291.0,10560292.0,10558026.0,10558026.0,0.0,0.0,10557302.0,10559292.0,10557302.0,10560292.0,10559299.0,10560292.0,4001.0,1011.0,2990.0,993.0,1990.0,-1273.0
67,12983.88369,3.9994218,1,68,1,1,2,1,2,1,-30,1,-1.2409011,10560299.0,10564300.0,10562068.0,10562068.0,0.0,0.0,10561309.0,10563301.0,10561309.0,10564300.0,10563308.0,10564300.0,4001.0,1010.0,2991.0,992.0,1992.0,-1240.0
68,13012.3131,3.5077151,1,69,1,2,2,1,4,1,-25,2,-1.2829298,10588729.0,10592238.0,10589964.0,0.0,10589964.0,0.0,10589246.0,10591238.0,10589246.0,10592238.0,10591245.0,10592238.0,3509.0,517.0,2992.0,993.0,1992.0,-1281.0
69,13015.82915,3.507854,1,70,1,1,2,2,5,2,-35,1,-1.2996042,10592244.0,10595754.0,10593463.0,10593463.0,0.0,0.0,10592762.0,10594754.0,10592762.0,10595754.0,10594761.0,10595754.0,3510.0,518.0,2992.0,993.0,1992.0,-1298.0
70,13019.34531,3.507901,1,71,1,2,1,1,4,2,-30,2,-1.057382,10595761.0,10599270.0,10597221.0,0.0,10597221.0,0.0,10596279.0,10598271.0,10596279.0,10599270.0,10598277.0,10599270.0,3509.0,518.0,2991.0,993.0,1992.0,-1056.0
71,13022.86153,3.5078316,1,72,1,1,1,2,1,1,-30,2,-1.1746247,10599277.0,10602787.0,10600620.0,0.0,10600620.0,0.0,10599795.0,10601786.0,10599795.0,10602787.0,10601793.0,10602787.0,3510.0,518.0,2992.0,994.0,1991.0,-1173.0
72,13026.37779,3.5077608,1,73,1,1,1,2,4,2,-35,2,-0.9412374,10602793.0,10606303.0,10604370.0,0.0,10604370.0,0.0,10603311.0,10605302.0,10603311.0,10606303.0,10605309.0,10606303.0,3510.0,518.0,2992.0,994.0,1991.0,-939.0
73,13029.89393,3.5077802,1,74,1,2,1,1,2,2,-35,2,-1.1996036,10606309.0,10609818.0,10607627.0,0.0,10607627.0,0.0,10606827.0,10608819.0,10606828.0,10609818.0,10608825.0,10609818.0,3509.0,519.0,2990.0,993.0,1992.0,-1198.0
74,13033.41004,3.5078207,1,75,1,2,1,2,1,1,-40,2,-1.4073477,10609825.0,10613334.0,10610936.0,0.0,10610936.0,0.0,10610344.0,10612335.0,10610344.0,10613334.0,10612341.0,10613334.0,3509.0,519.0,2990.0,993.0,1991.0,-1405.0
75,13036.9262,3.5078553,1,76,1,2,2,2,4,1,-45,2,-1.3241088,10613341.0,10616851.0,10614535.0,0.0,10614535.0,0.0,10613859.0,10615851.0,10613859.0,10616851.0,10615858.0,10616851.0,3510.0,518.0,2992.0,993.0,1992.0,-1323.0
76,13040.44238,3.5078285,1,77,1,2,2,2,5,1,-50,2,-1.3662447,10616857.0,10620367.0,10618009.0,0.0,10618009.0,0.0,10617375.0,10619367.0,10617375.0,10620367.0,10619374.0,10620368.0,3510.0,518.0,2992.0,994.0,1992.0,-1365.0
77,13043.95868,3.9994547,1,78,1,2,2,2,4,1,-55,1,-0.9747794,10620374.0,10624375.0,10622409.0,10622409.0,0.0,0.0,10621384.0,10623375.0,10621384.0,10624375.0,10623382.0,10624375.0,4001.0,1010.0,2991.0,993.0,1991.0,-973.0
78,13068.7384,3.9994443,1,79,1,1,2,1,2,1,-40,1,-0.8581188,10645153.0,10649154.0,10647305.0,10647305.0,0.0,0.0,10646163.0,10648154.0,10646163.0,10649154.0,10648162.0,10649154.0,4001.0,1010.0,2991.0,992.0,1991.0,-857.0
79,13082.31984,3.5077711,1,80,1,1,2,2,3,2,-50,1,-1.116253,10658735.0,10662244.0,10660137.0,10660137.0,0.0,0.0,10659253.0,10661244.0,10659253.0,10662244.0,10661251.0,10662244.0,3509.0,518.0,2991.0,993.0,1991.0,-1114.0
80,13237.53132,3.6494946,1,81,1,2,1,2,5,2,-45,1,-0.7159889,10813945.0,10817596.0,10815889.0,10815889.0,0.0,0.0,10814605.0,10816596.0,10814605.0,10817596.0,10816603.0,10817596.0,3651.0,660.0,2991.0,993.0,1991.0,-714.0
81,13241.18914,3.5078393,1,82,1,1,2,2,1,1,-40,1,-1.1079843,10817603.0,10821113.0,10819013.0,10819013.0,0.0,0.0,10818121.0,10820113.0,10818121.0,10821113.0,10820119.0,10821113.0,3510.0,518.0,2992.0,994.0,1992.0,-1106.0
82,13244.70529,3.5078615,1,83,1,1,1,2,1,2,-35,1,-1.1247586,10821119.0,10824628.0,10822512.0,10822512.0,0.0,0.0,10821637.0,10823628.0,10821637.0,10824628.0,10823636.0,10824628.0,3509.0,518.0,2991.0,992.0,1991.0,-1124.0
83,13248.22157,3.5077571,1,84,1,2,1,1,1,1,-35,1,-1.1497729,10824635.0,10828144.0,10826003.0,10826003.0,0.0,0.0,10825154.0,10827145.0,10825154.0,10828144.0,10827152.0,10828144.0,3509.0,519.0,2990.0,992.0,1991.0,-1149.0
84,13251.73768,3.5078223,1,85,1,2,2,2,4,2,-30,2,-1.2079594,10828151.0,10831660.0,10829462.0,0.0,10829462.0,0.0,10828670.0,10830661.0,10828670.0,10831661.0,10830668.0,10831661.0,3509.0,519.0,2991.0,993.0,1991.0,-1206.0
85,13255.25398,3.5077028,1,86,1,2,2,2,5,2,-35,2,-0.6912947,10831668.0,10835177.0,10833494.0,0.0,10833494.0,0.0,10832186.0,10834177.0,10832186.0,10835177.0,10834184.0,10835177.0,3509.0,518.0,2991.0,993.0,1991.0,-690.0
86,13258.77015,3.507846,1,87,1,1,1,2,1,2,-40,1,-0.8414064,10835184.0,10838693.0,10836860.0,10836860.0,0.0,0.0,10835701.0,10837693.0,10835701.0,10838693.0,10837700.0,10838693.0,3509.0,517.0,2992.0,993.0,1992.0,-840.0
87,13262.28632,3.5077099,1,88,1,2,2,2,4,1,-35,2,-1.0914557,10838700.0,10842209.0,10840126.0,0.0,10840126.0,0.0,10839218.0,10841210.0,10839218.0,10842209.0,10841216.0,10842209.0,3509.0,518.0,2991.0,993.0,1992.0,-1090.0
88,13265.80236,3.5078462,1,89,1,1,2,1,5,2,-30,2,-1.1910932,10842216.0,10845725.0,10843543.0,0.0,10843543.0,0.0,10842734.0,10844725.0,10842734.0,10845726.0,10844732.0,10845726.0,3509.0,518.0,2992.0,994.0,1991.0,-1189.0
89,13269.31863,3.5079143,1,90,1,1,1,2,3,2,-40,2,-0.7910997,10845732.0,10849242.0,10847459.0,0.0,10847459.0,0.0,10846250.0,10848241.0,10846250.0,10849242.0,10848248.0,10849242.0,3510.0,518.0,2992.0,994.0,1991.0,-789.0
90,13272.83472,3.4994933,1,91,1,2,1,2,5,2,-45,2,-1.0663053,10849248.0,10852749.0,10850691.0,0.0,10850691.0,0.0,10849759.0,10851749.0,10849759.0,10852749.0,10851756.0,10852749.0,3501.0,511.0,2990.0,993.0,1990.0,-1065.0
91,13276.34254,3.5078631,1,92,1,1,1,2,2,1,-50,2,-0.9414774,10852756.0,10856265.0,10854332.0,0.0,10854332.0,0.0,10853274.0,10855266.0,10853274.0,10856266.0,10855273.0,10856266.0,3509.0,518.0,2992.0,993.0,1992.0,-941.0
92,13279.85886,3.5077112,1,93,1,1,1,1,4,1,-35,1,-0.8913211,10856272.0,10859782.0,10857899.0,10857899.0,0.0,0.0,10856790.0,10858782.0,10856790.0,10859782.0,10858788.0,10859782.0,3510.0,518.0,2992.0,994.0,1992.0,-889.0
93,13283.3749,3.5078189,1,94,1,2,2,2,3,2,-55,1,-0.7746789,10859788.0,10863298.0,10861532.0,10861532.0,0.0,0.0,10860306.0,10862297.0,10860306.0,10863298.0,10862305.0,10863298.0,3510.0,518.0,2992.0,993.0,1991.0,-773.0
94,13286.89107,3.4995041,1,95,1,2,1,2,5,1,-50,1,-1.090804,10863304.0,10866805.0,10864723.0,10864723.0,0.0,0.0,10863815.0,10865806.0,10863815.0,10866805.0,10865813.0,10866805.0,3501.0,511.0,2990.0,992.0,1991.0,-1090.0
95,13290.39889,3.5078444,1,96,1,2,2,2,4,2,-45,1,-1.2157088,10866812.0,10870322.0,10868115.0,10868115.0,0.0,0.0,10867330.0,10869322.0,10867330.0,10870322.0,10869329.0,10870322.0,3510.0,518.0,2992.0,993.0,1992.0,-1214.0
96,13293.91506,3.5745125,1,97,1,2,2,1,5,2,-30,2,-1.3328905,10870328.0,10873905.0,10871580.0,0.0,10871580.0,0.0,10870913.0,10872904.0,10870913.0,10873905.0,10872911.0,10873905.0,3577.0,585.0,2992.0,994.0,1991.0,-1331.0
97,13297.49791,3.5078045,1,98,1,1,2,2,2,2,-40,2,-0.991316,10873911.0,10877420.0,10875438.0,0.0,10875438.0,0.0,10874430.0,10876421.0,10874430.0,10877420.0,10876427.0,10877420.0,3509.0,519.0,2990.0,993.0,1991.0,-989.0
98,13301.01421,3.5077303,1,99,1,1,1,2,1,2,-45,1,-1.1079457,10877428.0,10880936.0,10878837.0,10878837.0,0.0,0.0,10877946.0,10879937.0,10877946.0,10880936.0,10879944.0,10880937.0,3508.0,518.0,2990.0,993.0,1991.0,-1107.0
99,13304.53026,3.5078506,1,100,1,2,2,2,3,1,-40,2,-1.2996254,10880944.0,10884453.0,10882162.0,0.0,10882162.0,0.0,10881462.0,10883453.0,10881462.0,10884453.0,10883460.0,10884453.0,3509.0,518.0,2991.0,993.0,1991.0,-1298.0
100,13440.25292,3.8161613,2,1,1,1,2,2,3,1,-65,1,-0.8577716,11016666.0,11020483.0,11018633.0,11018633.0,0.0,0.0,11017492.0,11019483.0,11017492.0,11020483.0,11019490.0,11020484.0,3817.0,826.0,2991.0,994.0,1991.0,-857.0
101,13444.07738,3.5078277,2,2,1,2,1,2,5,1,-60,1,-0.9328494,11020490.0,11023999.0,11022075.0,11022075.0,0.0,0.0,11021008.0,11022999.0,11021009.0,11023999.0,11023006.0,11023999.0,3509.0,519.0,2990.0,993.0,1991.0,-931.0
102,13447.59353,3.5078455,2,3,1,1,2,1,2,1,-15,2,-1.174399,11024006.0,11027515.0,11025349.0,0.0,11025349.0,0.0,11024524.0,11026516.0,11024524.0,11027515.0,11026522.0,11027515.0,3509.0,518.0,2991.0,993.0,1992.0,-1173.0
103,13451.10971,3.5078561,2,4,1,1,1,2,3,1,-55,1,-1.2244571,11027522.0,11031031.0,11028816.0,11028816.0,0.0,0.0,11028040.0,11030031.0,11028040.0,11031032.0,11030038.0,11031032.0,3509.0,518.0,2992.0,994.0,1991.0,-1222.0
104,13454.6259,3.5161557,2,5,1,2,2,1,2,1,-20,2,-1.3406064,11031038.0,11034556.0,11032224.0,0.0,11032224.0,0.0,11031565.0,11033556.0,11031566.0,11034557.0,11033563.0,11034557.0,3518.0,528.0,2991.0,994.0,1991.0,-1339.0
105,13458.15887,3.5077398,2,6,1,1,2,1,1,1,-25,2,-1.0828398,11034573.0,11038080.0,11036006.0,0.0,11036006.0,0.0,11035089.0,11037081.0,11035089.0,11038080.0,11037087.0,11038081.0,3507.0,516.0,2991.0,994.0,1992.0,-1081.0
106,13461.67491,3.5078689,2,7,1,2,1,1,1,1,-30,2,-1.191173,11038087.0,11041596.0,11039413.0,0.0,11039413.0,0.0,11038605.0,11040597.0,11038605.0,11041597.0,11040603.0,11041597.0,3509.0,518.0,2992.0,994.0,1992.0,-1190.0
107,13465.19111,3.5161727,2,8,1,2,1,2,3,2,-50,2,-0.5643956,11041603.0,11045121.0,11043566.0,0.0,11043566.0,0.0,11042121.0,11044121.0,11042121.0,11045121.0,11044128.0,11045121.0,3518.0,518.0,3000.0,993.0,2000.0,-562.0
108,13468.71561,3.7077999,2,9,1,1,1,1,2,2,-35,1,-0.8911305,11045128.0,11048837.0,11046955.0,11046955.0,0.0,0.0,11045845.0,11047837.0,11045845.0,11048837.0,11047844.0,11048837.0,3709.0,717.0,2992.0,993.0,1992.0,-889.0
109,13472.43189,3.9993,2,10,1,2,1,1,4,1,-30,2,-1.1830328,11048844.0,11052845.0,11050670.0,0.0,11050670.0,0.0,11049853.0,11051844.0,11049853.0,11052845.0,11051852.0,11052845.0,4001.0,1009.0,2992.0,993.0,1991.0,-1182.0
110,13476.43952,3.5078306,2,11,1,2,1,1,4,1,-35,2,-1.1914333,11052851.0,11056361.0,11054178.0,0.0,11054178.0,0.0,11053370.0,11055361.0,11053370.0,11056362.0,11055368.0,11056362.0,3510.0,519.0,2992.0,994.0,1991.0,-1190.0
111,13489.82929,3.6745011,2,12,1,2,1,2,2,2,-55,1,-1.0571681,11066241.0,11069918.0,11067869.0,11067869.0,0.0,0.0,11066926.0,11068917.0,11066926.0,11069918.0,11068924.0,11069918.0,3677.0,685.0,2992.0,994.0,1991.0,-1055.0
112,13503.02744,3.666168,2,13,1,2,2,2,1,2,-50,2,-0.81632,11079439.0,11083107.0,11081299.0,0.0,11081299.0,0.0,11080116.0,11082107.0,11080116.0,11083107.0,11082114.0,11083107.0,3668.0,677.0,2991.0,993.0,1991.0,-815.0
113,13539.0224,3.8160911,2,14,1,2,1,1,1,2,-40,2,-1.0496116,11115434.0,11119252.0,11117211.0,0.0,11117211.0,0.0,11116260.0,11118252.0,11116260.0,11119252.0,11118258.0,11119252.0,3818.0,826.0,2992.0,994.0,1992.0,-1047.0
114,13542.84686,3.5078693,2,15,1,1,1,1,2,1,-45,1,-0.8662255,11119258.0,11122768.0,11120910.0,11120910.0,0.0,0.0,11119776.0,11121768.0,11119777.0,11122768.0,11121775.0,11122768.0,3510.0,519.0,2991.0,993.0,1992.0,-865.0
115,13546.36306,3.5078428,2,16,1,2,1,2,1,2,-55,1,-1.2495974,11122774.0,11126284.0,11124042.0,11124042.0,0.0,0.0,11123293.0,11125284.0,11123293.0,11126284.0,11125291.0,11126285.0,3510.0,519.0,2991.0,994.0,1991.0,-1249.0
116,13549.87923,3.5078385,2,17,1,2,1,2,5,2,-50,1,-1.349038,11126291.0,11129800.0,11127460.0,11127460.0,0.0,0.0,11126809.0,11128800.0,11126809.0,11129800.0,11128807.0,11129800.0,3509.0,518.0,2991.0,993.0,1991.0,-1347.0
117,13553.39553,3.5077192,2,18,1,2,2,2,3,2,-45,2,-1.2995737,11129807.0,11133316.0,11131025.0,0.0,11131025.0,0.0,11130325.0,11132316.0,11130325.0,11133316.0,11132323.0,11133316.0,3509.0,518.0,2991.0,993.0,1991.0,-1298.0
118,13629.40138,3.5078518,2,19,1,2,2,2,1,1,-50,2,-1.0078064,11205814.0,11209322.0,11207322.0,0.0,11207322.0,0.0,11206330.0,11208321.0,11206330.0,11209322.0,11208328.0,11209322.0,3508.0,516.0,2992.0,994.0,1991.0,-1006.0
119,13632.91756,3.5078896,2,20,1,2,2,2,2,1,-55,1,-0.8579416,11209328.0,11212837.0,11210988.0,11210988.0,0.0,0.0,11209847.0,11211838.0,11209847.0,11212837.0,11211845.0,11212837.0,3509.0,519.0,2990.0,992.0,1991.0,-857.0
120,13636.43375,3.5078108,2,21,1,2,1,2,2,1,-50,1,-0.8330102,11212844.0,11216354.0,11214529.0,11214529.0,0.0,0.0,11213363.0,11215354.0,11213363.0,11216354.0,11215361.0,11216354.0,3510.0,519.0,2991.0,993.0,1991.0,-832.0
121,13700.22478,3.9994394,2,22,1,1,1,1,2,2,-40,2,-1.0996422,11276635.0,11280636.0,11278544.0,0.0,11278544.0,0.0,11277645.0,11279636.0,11277645.0,11280636.0,11279643.0,11280637.0,4001.0,1010.0,2991.0,994.0,1991.0,-1099.0
122,13704.23256,3.5077972,2,23,1,2,1,2,3,2,-45,2,-1.0246393,11280643.0,11284152.0,11282136.0,0.0,11282136.0,0.0,11281161.0,11283152.0,11281161.0,11284152.0,11283159.0,11284152.0,3509.0,518.0,2991.0,993.0,1991.0,-1023.0
123,13707.74875,3.7661254,2,24,1,2,2,2,1,1,-50,1,-1.1329684,11284159.0,11287927.0,11285802.0,11285802.0,0.0,0.0,11284935.0,11286927.0,11284935.0,11287927.0,11286934.0,11287927.0,3768.0,776.0,2992.0,993.0,1992.0,-1132.0
124,13711.52336,3.5078376,2,25,1,1,2,1,1,1,-45,1,-1.1330652,11287934.0,11291443.0,11289318.0,11289318.0,0.0,0.0,11288452.0,11290443.0,11288452.0,11291443.0,11290450.0,11291443.0,3509.0,518.0,2991.0,993.0,1991.0,-1132.0
125,13715.03938,3.507987,2,26,1,1,1,2,2,2,-45,1,-1.1996182,11291449.0,11294959.0,11292767.0,11292767.0,0.0,0.0,11291968.0,11293959.0,11291968.0,11294960.0,11293966.0,11294960.0,3510.0,519.0,2992.0,994.0,1991.0,-1199.0
126,13718.55556,3.507851,2,27,1,2,1,2,3,2,-40,2,-1.2745978,11294966.0,11298475.0,11296209.0,0.0,11296209.0,0.0,11295484.0,11297475.0,11295484.0,11298475.0,11297482.0,11298475.0,3509.0,518.0,2991.0,993.0,1991.0,-1273.0
127,13722.07176,3.5078086,2,28,1,2,2,1,5,1,-40,2,-1.2747199,11298482.0,11301991.0,11299725.0,0.0,11299725.0,0.0,11299000.0,11300991.0,11299001.0,11301991.0,11300998.0,11301991.0,3509.0,519.0,2990.0,993.0,1991.0,-1273.0
128,13725.5879,3.5078265,2,29,1,2,1,2,3,1,-45,2,-1.2745757,11301998.0,11305507.0,11303241.0,0.0,11303241.0,0.0,11302516.0,11304508.0,11302516.0,11305508.0,11304514.0,11305508.0,3509.0,518.0,2992.0,994.0,1992.0,-1273.0
129,13729.10418,3.5077379,2,30,1,1,1,1,1,1,-45,1,-1.2329364,11305514.0,11309024.0,11306799.0,11306799.0,0.0,0.0,11306032.0,11308024.0,11306032.0,11309024.0,11308030.0,11309024.0,3510.0,518.0,2992.0,994.0,1992.0,-1231.0
130,13732.62024,3.5078431,2,31,1,1,1,1,4,2,-40,1,-1.3745783,11309030.0,11312540.0,11310173.0,11310173.0,0.0,0.0,11309548.0,11311539.0,11309548.0,11312540.0,11311546.0,11312540.0,3510.0,518.0,2992.0,994.0,1991.0,-1373.0
131,13736.13655,3.5077097,2,32,1,2,1,2,4,2,-50,1,-1.2996139,11312547.0,11316056.0,11313764.0,11313764.0,0.0,0.0,11313065.0,11315056.0,11313065.0,11316056.0,11315063.0,11316056.0,3509.0,518.0,2991.0,993.0,1991.0,-1299.0
132,13739.65258,3.5078298,2,33,1,1,1,1,3,1,-35,1,-1.4239622,11316062.0,11319571.0,11317157.0,11317157.0,0.0,0.0,11316581.0,11318572.0,11316581.0,11319572.0,11318579.0,11319572.0,3509.0,519.0,2991.0,993.0,1991.0,-1422.0
133,13743.16888,3.5077166,2,34,1,1,1,1,4,1,-30,1,-1.2907676,11319579.0,11323088.0,11320806.0,11320806.0,0.0,0.0,11320097.0,11322088.0,11320097.0,11323088.0,11322095.0,11323088.0,3509.0,518.0,2991.0,993.0,1991.0,-1289.0
134,13746.685,3.5077624,2,35,1,2,2,2,1,1,-45,1,-1.1579519,11323095.0,11326604.0,11324455.0,11324455.0,0.0,0.0,11323613.0,11325604.0,11323614.0,11326604.0,11325611.0,11326604.0,3509.0,519.0,2990.0,993.0,1991.0,-1156.0
135,13750.20108,3.5078872,2,36,1,2,1,1,1,1,-25,2,-0.9413372,11326611.0,11330120.0,11328187.0,0.0,11328187.0,0.0,11327129.0,11329121.0,11327129.0,11330121.0,11329127.0,11330121.0,3509.0,518.0,2992.0,994.0,1992.0,-940.0
136,13753.71742,3.5076974,2,37,1,1,2,1,3,2,-30,2,-1.3328125,11330127.0,11333637.0,11331312.0,0.0,11331312.0,0.0,11330645.0,11332637.0,11330645.0,11333637.0,11332643.0,11333637.0,3510.0,518.0,2992.0,994.0,1992.0,-1331.0
137,13757.23346,3.5078305,2,38,1,1,2,2,1,1,-40,2,-1.2497424,11333643.0,11337153.0,11334912.0,0.0,11334912.0,0.0,11334161.0,11336152.0,11334161.0,11337153.0,11336160.0,11337153.0,3510.0,518.0,2992.0,993.0,1991.0,-1248.0
138,13760.74962,3.5078387,2,39,1,1,2,1,2,2,-35,2,-1.233103,11337159.0,11340669.0,11338444.0,0.0,11338444.0,0.0,11337678.0,11339670.0,11337678.0,11340669.0,11339676.0,11340669.0,3510.0,519.0,2991.0,993.0,1992.0,-1232.0
139,13764.2658,3.5078386,2,40,1,1,2,1,2,2,-40,2,-1.2329547,11340676.0,11344185.0,11341961.0,0.0,11341961.0,0.0,11341194.0,11343185.0,11341194.0,11344185.0,11343192.0,11344185.0,3509.0,518.0,2991.0,993.0,1991.0,-1231.0
140,13767.7821,3.5077215,2,41,1,1,2,1,2,1,-45,1,-1.316433,11344192.0,11347701.0,11345393.0,11345393.0,0.0,0.0,11344710.0,11346701.0,11344710.0,11347701.0,11346708.0,11347701.0,3509.0,518.0,2991.0,993.0,1991.0,-1315.0
141,13771.29827,3.6243639,2,42,1,1,2,2,2,1,-45,1,-1.3326763,11347708.0,11351334.0,11349010.0,11349010.0,0.0,0.0,11348342.0,11350335.0,11348342.0,11351334.0,11350341.0,11351334.0,3626.0,634.0,2992.0,993.0,1993.0,-1331.0
142,13774.9311,3.5077132,2,43,1,2,2,1,3,2,-40,1,-1.1245636,11351341.0,11354850.0,11352734.0,11352734.0,0.0,0.0,11351859.0,11353850.0,11351859.0,11354850.0,11353857.0,11354850.0,3509.0,518.0,2991.0,993.0,1991.0,-1123.0
143,13778.44715,3.5078817,2,44,1,1,2,2,2,1,-40,1,-1.2912391,11354857.0,11358367.0,11356084.0,11356084.0,0.0,0.0,11355375.0,11357366.0,11355375.0,11358367.0,11357373.0,11358367.0,3510.0,518.0,2992.0,994.0,1991.0,-1289.0
144,13781.9633,3.5078606,2,45,1,1,2,2,2,2,-35,1,-1.1329449,11358373.0,11361882.0,11359758.0,11359758.0,0.0,0.0,11358891.0,11360882.0,11358891.0,11361882.0,11360889.0,11361882.0,3509.0,518.0,2991.0,993.0,1991.0,-1131.0
145,13785.47963,3.5910219,2,46,1,1,1,1,1,2,-35,2,-0.7079728,11361889.0,11365482.0,11363782.0,0.0,11363782.0,0.0,11362491.0,11364482.0,11362491.0,11365482.0,11364489.0,11365483.0,3593.0,602.0,2991.0,994.0,1991.0,-707.0
146,13789.07912,3.5076992,2,47,1,1,2,1,1,2,-40,1,-1.3995731,11365489.0,11368998.0,11366607.0,11366607.0,0.0,0.0,11366007.0,11367998.0,11366007.0,11368998.0,11368005.0,11368998.0,3509.0,518.0,2991.0,993.0,1991.0,-1398.0
147,13792.59527,3.5077288,2,48,1,1,2,1,5,2,-35,2,-1.2329571,11369005.0,11372514.0,11370290.0,0.0,11370290.0,0.0,11369523.0,11371514.0,11369523.0,11372514.0,11371521.0,11372514.0,3509.0,518.0,2991.0,993.0,1991.0,-1231.0
148,13796.11132,3.5078253,2,49,1,2,1,1,3,1,-40,2,-0.8079901,11372521.0,11376030.0,11374231.0,0.0,11374231.0,0.0,11373039.0,11375030.0,11373040.0,11376030.0,11375037.0,11376030.0,3509.0,519.0,2990.0,993.0,1991.0,-806.0
149,13799.62748,3.8328264,2,50,1,2,1,1,1,2,-45,2,-1.2663877,11376037.0,11379871.0,11377613.0,0.0,11377613.0,0.0,11376880.0,11378872.0,11376880.0,11379871.0,11378879.0,11379871.0,3834.0,843.0,2991.0,992.0,1992.0,-1266.0
150,13803.46864,3.5078352,2,51,1,1,2,2,1,1,-30,1,-1.3662079,11379878.0,11383387.0,11381030.0,11381030.0,0.0,0.0,11380396.0,11382388.0,11380396.0,11383388.0,11382394.0,11383388.0,3509.0,518.0,2992.0,994.0,1992.0,-1364.0
151,13806.98481,3.5079741,2,52,1,1,2,1,3,2,-50,1,-1.3079303,11383394.0,11386904.0,11384604.0,11384604.0,0.0,0.0,11383912.0,11385904.0,11383912.0,11386904.0,11385911.0,11386904.0,3510.0,518.0,2992.0,993.0,1992.0,-1307.0
152,13810.50099,3.4995069,2,53,1,2,2,2,5,1,-25,2,-1.2576692,11386910.0,11390411.0,11388162.0,0.0,11388162.0,0.0,11387421.0,11389412.0,11387421.0,11390411.0,11389418.0,11390411.0,3501.0,511.0,2990.0,993.0,1991.0,-1256.0
153,13814.00883,3.9994377,2,54,1,2,2,2,1,1,-30,2,-1.3662909,11390418.0,11394419.0,11392061.0,0.0,11392061.0,0.0,11391428.0,11393420.0,11391428.0,11394419.0,11393426.0,11394419.0,4001.0,1010.0,2991.0,993.0,1992.0,-1365.0
154,13818.01657,3.7161881,2,55,1,2,2,2,4,2,-35,2,-1.4158075,11394426.0,11398143.0,11395737.0,0.0,11395737.0,0.0,11395153.0,11397144.0,11395153.0,11398144.0,11397151.0,11398144.0,3717.0,727.0,2991.0,993.0,1991.0,-1414.0
155,13821.7412,3.5077371,2,56,1,2,1,1,5,2,-45,2,-1.1407547,11398151.0,11401660.0,11399528.0,0.0,11399528.0,0.0,11398668.0,11400660.0,11398668.0,11401660.0,11400667.0,11401660.0,3509.0,517.0,2992.0,993.0,1992.0,-1139.0
156,13825.2574,3.7743224,2,57,1,1,1,2,5,1,-40,2,-1.0828731,11401667.0,11405443.0,11403368.0,0.0,11403368.0,0.0,11402451.0,11404442.0,11402451.0,11405443.0,11404449.0,11405443.0,3776.0,784.0,2992.0,994.0,1991.0,-1081.0
157,13829.04006,3.9996259,2,58,1,2,1,2,5,2,-45,1,-1.0240773,11405449.0,11409451.0,11407435.0,11407435.0,0.0,0.0,11406459.0,11408450.0,11406459.0,11409451.0,11408457.0,11409451.0,4002.0,1010.0,2992.0,994.0,1991.0,-1022.0
158,13848.2374,3.8660651,2,59,1,2,2,2,2,2,-40,2,-1.2162622,11424647.0,11428514.0,11426307.0,0.0,11426307.0,0.0,11425523.0,11427514.0,11425523.0,11428515.0,11427521.0,11428515.0,3867.0,876.0,2992.0,994.0,1991.0,-1214.0
159,13852.11178,3.5078694,2,60,1,2,1,1,5,1,-50,1,-1.1496236,11428521.0,11432030.0,11429889.0,11429889.0,0.0,0.0,11429039.0,11431030.0,11429039.0,11432030.0,11431037.0,11432030.0,3509.0,518.0,2991.0,993.0,1991.0,-1148.0
160,13855.62796,3.999658375,2,61,1,2,2,1,1,2,-45,2,-1.3579124,11432037.0,11436040.0,11433689.0,0.0,11433689.0,0.0,11433046.0,11435038.0,11433046.0,11436040.0,11435045.0,11436040.0,4003.0,1009.0,2994.0,995.0,1992.0,-1356.0
161,13864.79354,3.6826582,2,62,1,2,2,1,4,2,-50,2,-1.1496187,11441203.0,11444887.0,11442746.0,0.0,11442746.0,0.0,11441895.0,11443887.0,11441895.0,11444887.0,11443894.0,11444887.0,3684.0,692.0,2992.0,993.0,1992.0,-1148.0
162,13868.48452,3.5078407,2,63,1,1,1,2,1,2,-45,2,-0.8996794,11444893.0,11448403.0,11446512.0,0.0,11446512.0,0.0,11445411.0,11447403.0,11445411.0,11448403.0,11447410.0,11448403.0,3510.0,518.0,2992.0,993.0,1992.0,-898.0
163,13872.00069,3.9994162,2,64,1,1,1,1,1,2,-55,1,-1.1329124,11448410.0,11452411.0,11450286.0,11450286.0,0.0,0.0,11449419.0,11451410.0,11449419.0,11452411.0,11451417.0,11452411.0,4001.0,1009.0,2992.0,994.0,1991.0,-1131.0
164,13876.00845,3.9994685,2,65,1,2,1,1,2,2,-50,1,-1.2995719,11452417.0,11456418.0,11454127.0,11454127.0,0.0,0.0,11453427.0,11455418.0,11453427.0,11456418.0,11455425.0,11456418.0,4001.0,1010.0,2991.0,993.0,1991.0,-1298.0
165,13885.77376,3.5078531,2,66,1,2,1,2,3,2,-50,1,-0.9996633,11462183.0,11465692.0,11463700.0,11463700.0,0.0,0.0,11462701.0,11464692.0,11462701.0,11465692.0,11464699.0,11465692.0,3509.0,518.0,2991.0,993.0,1991.0,-999.0
166,13889.28994,3.5078232,2,67,1,1,1,2,2,2,-45,2,-1.0829591,11465699.0,11469208.0,11467134.0,0.0,11467134.0,0.0,11466217.0,11468208.0,11466217.0,11469208.0,11468215.0,11469208.0,3509.0,518.0,2991.0,993.0,1991.0,-1081.0
167,13892.8062,3.9993545,2,68,1,2,2,2,4,1,-50,1,-1.2496122,11469215.0,11473216.0,11470975.0,11470975.0,0.0,0.0,11470224.0,11472216.0,11470224.0,11473216.0,11472223.0,11473216.0,4001.0,1009.0,2992.0,993.0,1992.0,-1248.0
168,13896.8139,3.99943,2,69,1,1,2,2,3,1,-45,1,-1.2579479,11473223.0,11477224.0,11474974.0,11474974.0,0.0,0.0,11474232.0,11476223.0,11474232.0,11477224.0,11476231.0,11477224.0,4001.0,1009.0,2992.0,993.0,1991.0,-1257.0
169,13906.72917,3.9911284,2,70,1,1,2,1,3,1,-45,2,-1.1662255,11483138.0,11487130.0,11484973.0,0.0,11484973.0,0.0,11484139.0,11486131.0,11484139.0,11487130.0,11486137.0,11487130.0,3992.0,1001.0,2991.0,993.0,1992.0,-1164.0
170,13915.61129,3.6827986,2,71,1,1,2,2,1,1,-40,1,-1.0246229,11492020.0,11495704.0,11493688.0,11493688.0,0.0,0.0,11492713.0,11494704.0,11492713.0,11495704.0,11494711.0,11495704.0,3684.0,693.0,2991.0,993.0,1991.0,-1023.0
171,13919.30241,3.5078575,2,72,1,1,2,1,4,2,-50,1,-1.3164919,11495711.0,11499220.0,11496912.0,11496912.0,0.0,0.0,11496229.0,11498221.0,11496229.0,11499220.0,11498228.0,11499220.0,3509.0,518.0,2991.0,992.0,1992.0,-1316.0
172,13922.8186,3.9827679,2,73,1,2,2,1,5,2,-45,2,-1.3830682,11499227.0,11503211.0,11500838.0,0.0,11500838.0,0.0,11500220.0,11502212.0,11500220.0,11503212.0,11502219.0,11503212.0,3984.0,993.0,2992.0,993.0,1992.0,-1381.0
173,13931.61735,3.507825,2,74,1,2,2,1,5,1,-50,1,-1.19129,11508027.0,11511535.0,11509352.0,11509352.0,0.0,0.0,11508544.0,11510536.0,11508544.0,11511535.0,11510542.0,11511535.0,3508.0,517.0,2991.0,993.0,1992.0,-1190.0
174,14010.56459,3.9994606,2,75,1,2,1,2,3,1,-35,2,-1.0495338,11586973.0,11590974.0,11588933.0,0.0,11588933.0,0.0,11587982.0,11589973.0,11587982.0,11590974.0,11589980.0,11590974.0,4001.0,1009.0,2992.0,994.0,1991.0,-1047.0
175,14014.57237,3.5078453,2,76,1,2,2,2,5,2,-40,2,-1.3578409,11590980.0,11594490.0,11592140.0,0.0,11592140.0,0.0,11591498.0,11593489.0,11591498.0,11594490.0,11593496.0,11594490.0,3510.0,518.0,2992.0,994.0,1991.0,-1356.0
176,14018.08855,3.5078586,2,77,1,2,2,2,5,1,-45,2,-1.2830772,11594496.0,11598006.0,11595731.0,0.0,11595731.0,0.0,11595015.0,11597006.0,11595015.0,11598007.0,11597013.0,11598007.0,3510.0,519.0,2992.0,994.0,1991.0,-1282.0
177,14021.60488,3.5078391,2,78,1,2,1,2,5,1,-50,1,-0.924726,11598013.0,11601523.0,11599606.0,11599606.0,0.0,0.0,11598531.0,11600522.0,11598531.0,11601523.0,11600529.0,11601523.0,3510.0,518.0,2992.0,994.0,1991.0,-923.0
178,14025.12091,3.5078414,2,79,1,2,2,1,3,2,-45,2,-1.2079522,11601529.0,11605038.0,11602839.0,0.0,11602839.0,0.0,11602047.0,11604038.0,11602047.0,11605038.0,11604045.0,11605038.0,3509.0,518.0,2991.0,993.0,1991.0,-1206.0
179,14028.63709,3.5078398,2,80,1,1,1,1,5,2,-50,1,-0.8829742,11605045.0,11608554.0,11606680.0,11606680.0,0.0,0.0,11605563.0,11607555.0,11605563.0,11608554.0,11607561.0,11608554.0,3509.0,518.0,2991.0,993.0,1992.0,-881.0
180,14032.15323,3.4995472,2,81,1,2,1,1,2,2,-45,2,-1.1164604,11608561.0,11612062.0,11609954.0,0.0,11609954.0,0.0,11609071.0,11611063.0,11609071.0,11612062.0,11611069.0,11612063.0,3501.0,510.0,2991.0,994.0,1992.0,-1115.0
181,14035.66122,3.5077172,2,82,1,2,2,2,2,1,-45,2,-1.2080413,11612069.0,11615578.0,11613379.0,0.0,11613379.0,0.0,11612587.0,11614578.0,11612587.0,11615578.0,11614585.0,11615578.0,3509.0,518.0,2991.0,993.0,1991.0,-1206.0
182,14039.17726,3.507865,2,83,1,1,1,2,5,2,-50,1,-1.3579139,11615585.0,11619094.0,11616745.0,11616745.0,0.0,0.0,11616103.0,11618095.0,11616104.0,11619094.0,11618101.0,11619094.0,3509.0,519.0,2990.0,993.0,1992.0,-1356.0
183,14042.69345,3.5078537,2,84,1,2,1,1,1,2,-50,1,-1.1829243,11619101.0,11622610.0,11620436.0,11620436.0,0.0,0.0,11619619.0,11621611.0,11619619.0,11622611.0,11621617.0,11622611.0,3509.0,518.0,2992.0,994.0,1992.0,-1181.0
184,14046.20962,3.507844,2,85,1,1,2,1,2,2,-45,1,-1.332629,11622617.0,11626127.0,11623803.0,11623803.0,0.0,0.0,11623135.0,11625127.0,11623135.0,11626127.0,11625134.0,11626127.0,3510.0,518.0,2992.0,993.0,1992.0,-1331.0
185,14049.72579,3.5078369,2,86,1,2,1,2,1,2,-45,1,-1.165748,11626133.0,11629643.0,11627486.0,11627486.0,0.0,0.0,11626651.0,11628643.0,11626651.0,11629643.0,11628650.0,11629643.0,3510.0,518.0,2992.0,993.0,1992.0,-1164.0
186,14053.24209,3.5076881,2,87,1,2,2,1,3,1,-40,2,-1.1077505,11629650.0,11633159.0,11631060.0,0.0,11631060.0,0.0,11630168.0,11632160.0,11630168.0,11633159.0,11632166.0,11633159.0,3509.0,518.0,2991.0,993.0,1992.0,-1106.0
187,14056.75817,3.5077678,2,88,1,2,1,1,3,2,-45,1,-1.0410287,11633166.0,11636676.0,11634643.0,11634643.0,0.0,0.0,11633684.0,11635675.0,11633684.0,11636676.0,11635682.0,11636676.0,3510.0,518.0,2992.0,994.0,1991.0,-1039.0
188,14060.27427,3.5078808,2,89,1,1,1,2,4,2,-40,1,-1.3412581,11636682.0,11640191.0,11637858.0,11637858.0,0.0,0.0,11637200.0,11639191.0,11637200.0,11640191.0,11639198.0,11640191.0,3509.0,518.0,2991.0,993.0,1991.0,-1340.0
189,14063.79047,3.5078574,2,90,1,1,1,2,5,2,-35,2,-1.0912872,11640198.0,11643707.0,11641624.0,0.0,11641624.0,0.0,11640717.0,11642708.0,11640717.0,11643707.0,11642714.0,11643707.0,3509.0,519.0,2990.0,993.0,1991.0,-1090.0
190,14067.30666,3.5078462,2,91,1,2,1,1,5,1,-40,1,-1.290656,11643714.0,11647223.0,11644942.0,11644942.0,0.0,0.0,11644232.0,11646224.0,11644232.0,11647224.0,11646231.0,11647224.0,3509.0,518.0,2992.0,993.0,1992.0,-1289.0
191,14070.82296,3.5076821,2,92,1,1,1,1,2,1,-35,1,-1.358037,11647231.0,11650740.0,11648390.0,11648390.0,0.0,0.0,11647748.0,11649740.0,11647748.0,11650740.0,11649747.0,11650740.0,3509.0,517.0,2992.0,993.0,1992.0,-1357.0
192,14074.33904,3.5078135,2,93,1,2,2,2,4,1,-40,2,-1.2996786,11650747.0,11654256.0,11651965.0,0.0,11651965.0,0.0,11651264.0,11653256.0,11651264.0,11654256.0,11653263.0,11654257.0,3509.0,517.0,2992.0,994.0,1992.0,-1298.0
193,14077.85531,3.5077283,2,94,1,2,2,1,4,1,-30,2,-1.2997468,11654263.0,11657772.0,11655480.0,0.0,11655480.0,0.0,11654781.0,11656772.0,11654781.0,11657772.0,11656779.0,11657772.0,3509.0,518.0,2991.0,993.0,1991.0,-1299.0
194,14081.37137,3.5078273,2,95,1,1,2,2,5,2,-45,1,-1.2992482,11657779.0,11661289.0,11658998.0,11658998.0,0.0,0.0,11658297.0,11660289.0,11658297.0,11661289.0,11660295.0,11661289.0,3510.0,518.0,2992.0,994.0,1992.0,-1297.0
195,14084.88767,3.5076924,2,96,1,1,1,1,3,1,-35,2,-1.157962,11661295.0,11664804.0,11662655.0,0.0,11662655.0,0.0,11661813.0,11663804.0,11661813.0,11664804.0,11663811.0,11664804.0,3509.0,518.0,2991.0,993.0,1991.0,-1156.0
196,14088.40384,3.5077092,2,97,1,2,1,2,5,2,-40,1,-1.0580813,11664811.0,11668320.0,11666271.0,11666271.0,0.0,0.0,11665330.0,11667321.0,11665330.0,11668320.0,11667328.0,11668321.0,3509.0,519.0,2990.0,993.0,1991.0,-1057.0
197,14091.92002,3.5077553,2,98,1,1,1,1,4,1,-40,1,-1.3662919,11668327.0,11671836.0,11669478.0,11669478.0,0.0,0.0,11668845.0,11670837.0,11668845.0,11671836.0,11670843.0,11671837.0,3509.0,518.0,2991.0,994.0,1992.0,-1365.0
198,14095.43605,3.5078272,2,99,1,1,1,1,1,2,-35,2,-0.8664263,11671843.0,11675353.0,11673495.0,0.0,11673495.0,0.0,11672361.0,11674353.0,11672361.0,11675353.0,11674360.0,11675353.0,3510.0,518.0,2992.0,993.0,1992.0,-865.0
199,14098.95224,3.5079613,2,100,1,1,1,1,1,2,-40,2,-1.1329483,11675359.0,11678869.0,11676744.0,0.0,11676744.0,0.0,11675878.0,11677869.0,11675878.0,11678869.0,11677876.0,11678870.0,3510.0,519.0,2991.0,994.0,1991.0,-1132.0
