,onset,duration,run_number,trial_number,ext_mot_pos,ext_mot_ori,ext_mot_ver_dir,fix_off_prct,direction_report,response_duration,trial_onset,trial_offset,button_press_onset,button_left,button_right,fix_break,motion_onset,motion_offset,fixation_onset,fixation_offset,response_onset,response_offset,trial_duration,fix_check_duration,fixation_duration,response_duration,motion_duration,reaction_time,miss_time_trial,blink_trial,no_saccade_trial,main_sac_trial,innacurate_sac_trial,early_sac_trial,late_sac_trial,sac_x_onset_trial,sac_x_offset_trial,sac_y_onset_trial,sac_y_offset_trial,sac_t_onset_trial,sac_t_offset_trial,sac_dur_trial,sac_vpeak_trial,sac_dist_trial,sac_amp_trial,sac_dist_ang_trial,sac_lat_trial,sac_amp_ang_trial,cor_sac_trial,cor_sac_x_onset_trial,cor_sac_x_offset_trial,cor_sac_y_onset_trial,cor_sac_y_offset_trial,cor_sac_t_onset_trial,cor_sac_t_offset_trial,cor_sac_dur_trial,cor_sac_vpeak_trial,cor_sac_dist_trial,cor_sac_amp_trial,cor_sac_dist_ang_trial,cor_sac_amp_ang_trial
0,2552.754398,3.8327368,1,1,2,3,2,2,1.0,-0.5162561,2490526.0,2494358.0,2492840.0,2492840.0,0.0,2492266.0,2491342.0,2491342.0,2491342.0,2491932.0,2493351.0,2494359.0,3832.0,816.0,590.0,1008.0,0.0,-511.0,0.0,0.0,0.0,1.0,0.0,0.0,0.0,-0.017307660696614473,9.906904982742125,-0.10038443204036315,-0.19384579980208289,2492245.0,2492286.0,41.0,369.9150052402538,9.92465272034509,9.803316307740898,0.009417231195357863,313.0,0.027545133136255805,0.0,0.0,0.0,0.0,0.0,0.0,0.0,0.0,0.0,0.0,0.0,0.0,0.0
1,2556.595489,3.5327928,1,2,1,6,2,5,2.0,-0.0662892,2494365.0,2497900.0,2496830.0,0.0,2496830.0,2496292.0,2494882.0,2494882.0,2494883.0,2496075.0,2496891.0,2497900.0,3535.0,518.0,1192.0,1009.0,0.0,-61.0,0.0,0.0,0.0,1.0,0.0,0.0,0.0,0.02769225711458158,-10.53690383209889,0.14192281771223947,0.6646141707499973,2496271.0,2496356.0,85.0,498.72231103172635,10.577518460336764,12.228299681669453,-3.0921572105419837,196.0,-3.075871835535439,1.0,-33.26532385889301,-1.585381719809884,18.726888873736858,-0.11769209273697762,2497149.0,2497214.0,65.0,13344.777420445016,36.86104943890832,43.88367660010314,0.536618706874046,0.7624162697101527
2,2560.136746,3.5577069,1,3,2,4,2,1,2.0,-0.5496098,2497906.0,2501466.0,2499911.0,0.0,2499911.0,2499382.0,2498456.0,2498456.0,2498456.0,2498850.0,2500457.0,2501466.0,3560.0,550.0,394.0,1009.0,0.0,-546.0,0.0,0.0,0.0,0.0,0.0,0.0,1.0,0.10038443204036315,9.758059100751243,0.2423072497526026,0.09346136776171972,2499362.0,2499427.0,65.0,397.70185681709626,9.65882162084203,11.190510249054922,0.015410966240076514,512.0,0.041771353806523824,0.0,0.0,0.0,0.0,0.0,0.0,0.0,0.0,0.0,0.0,0.0,0.0,0.0
3,2563.702951,3.5243494,1,4,2,6,2,5,1.0,-0.1497213,2501473.0,2504998.0,2503842.0,2503842.0,0.0,2503416.0,2501989.0,2501989.0,2501989.0,2503182.0,2503990.0,2504998.0,3525.0,516.0,1193.0,1008.0,0.0,-148.0,0.0,0.0,0.0,1.0,0.0,0.0,0.0,0.006923064278647363,9.121137187115826,0.36692240676822757,0.713075620700517,2503392.0,2503459.0,67.0,353.34107285315673,9.120785115572033,10.597120380148526,-0.037961245795111016,210.0,-0.05359598896894412,0.0,0.0,0.0,0.0,0.0,0.0,0.0,0.0,0.0,0.0,0.0,0.0,0.0
4,2567.235843,3.540962672,1,5,2,3,2,2,2.0,-0.2658112,2505006.0,2508548.0,2507277.0,0.0,2507277.0,2506782.0,2505532.0,2505533.0,2505534.0,2506122.0,2507540.0,2508549.0,3542.0,528.0,588.0,1009.0,1.0,-263.0,0.0,0.0,0.0,0.0,0.0,0.0,1.0,-0.11423056059765394,9.699213054382751,0.4465376459726526,0.5607682065703105,2506757.0,2506823.0,66.0,393.79228349305714,9.814108426412158,11.193133271675354,-0.011639685954624161,635.0,-0.053216970795735674,0.0,0.0,0.0,0.0,0.0,0.0,0.0,0.0,0.0,0.0,0.0,0.0,0.0
5,2570.793619,3.5243188,1,6,2,1,1,5,2.0,0.1339302,2508565.0,2512089.0,2511217.0,0.0,2511217.0,2510648.0,2509082.0,2509082.0,2509082.0,2510272.0,2511081.0,2512090.0,3524.0,517.0,1190.0,1009.0,0.0,136.0,0.0,0.0,0.0,1.0,0.0,0.0,0.0,-0.03461532139322895,5.306528769581996,0.2423072497526026,0.16961507482682103,2510624.0,2510680.0,56.0,263.9315795415711,5.341638732903508,6.118744462969318,0.013609010724421618,352.0,0.07247634776765888,1.0,9.20421395845958,-33.26532385889301,0.35653781035025656,18.726888873736858,2511350.0,2511385.0,35.0,19251.16561638263,46.27236151971943,57.753496849147886,-2.733341483454796,-2.5820530589807724
6,2574.326515,3.524247522,1,7,2,10,1,3,1.0,-0.1328776,2512096.0,2515622.0,2514482.0,2514482.0,0.0,2513806.0,2512612.0,2512613.0,2512613.0,2513406.0,2514613.0,2515622.0,3526.0,517.0,793.0,1009.0,1.0,-131.0,0.0,0.0,0.0,1.0,0.0,0.0,0.0,0.1211536248763013,10.77228801757285,0.3807685353255184,-0.5849989315455684,2513786.0,2513828.0,42.0,363.32027992750193,10.694829154846273,10.628112880103423,0.09042546184021485,380.0,0.09328424351479209,1.0,10.754980356876235,9.491521126023377,-0.578075867266925,-0.3530762782109368,2513830.0,2513853.0,23.0,175.98485983910118,1.2833370730648497,1.671579568802074,-2.9653579558531176,-2.9604426181281798
7,2577.859331,3.532595931,1,8,2,4,2,3,2.0,-0.1142216,2515629.0,2519163.0,2518044.0,0.0,2518044.0,2517572.0,2516145.0,2516145.0,2516145.0,2516938.0,2518155.0,2519164.0,3534.0,516.0,793.0,1009.0,0.0,-111.0,0.0,0.0,0.0,0.0,0.0,0.0,1.0,-0.0692306427864579,10.194212150305924,0.10038443204036315,0.882690695527338,2517547.0,2517622.0,75.0,437.4396872819754,10.293214320948092,11.77954300999809,-0.07607549459093865,609.0,-0.08738749086828988,0.0,0.0,0.0,0.0,0.0,0.0,0.0,0.0,0.0,0.0,0.0,0.0,0.0
8,2581.40046,3.5242964,1,9,1,7,1,1,2.0,-0.6162274,2519170.0,2522696.0,2521072.0,0.0,2521072.0,2520486.0,2519686.0,2519687.0,2519687.0,2520079.0,2521687.0,2522696.0,3526.0,517.0,392.0,1009.0,1.0,-615.0,0.0,0.0,0.0,1.0,0.0,0.0,0.0,-0.14538434985156315,-11.83151685220565,0.39807619602213284,0.758075538511713,2520470.0,2520540.0,70.0,559.614659906275,11.691676201005977,13.053237586065869,-3.1107967056079184,391.0,-3.090389439737903,0.0,0.0,0.0,0.0,0.0,0.0,0.0,0.0,0.0,0.0,0.0,0.0,0.0
9,2584.933318,3.524405544,1,10,2,6,2,5,1.0,0.1419239,2522703.0,2526229.0,2525363.0,2525363.0,0.0,2524653.0,2523219.0,2523219.0,2523219.0,2524412.0,2525220.0,2526229.0,3526.0,516.0,1193.0,1009.0,0.0,143.0,0.0,0.0,0.0,1.0,0.0,0.0,0.0,-0.08653830348307236,8.470369144923124,0.1765381391054684,0.9449982740351486,2524633.0,2524699.0,66.0,340.6894297674463,8.591344252185777,9.756219489552212,-0.08956555627405054,221.0,-0.0902422970415999,1.0,-1.1699978630911367,-0.19384579980208289,0.28038410328515523,0.5607682065703105,2525959.0,2525999.0,40.0,161.71217960088984,1.0156220241992084,1.6539206357468008,-0.27970415246363234,-0.24954715926211554
10,2588.466107,3.5242871,1,11,1,1,1,4,2.0,0.0252229,2526236.0,2529761.0,2528780.0,0.0,2528780.0,2528268.0,2526752.0,2526752.0,2526752.0,2527745.0,2528754.0,2529761.0,3525.0,516.0,993.0,1007.0,0.0,26.0,0.0,0.0,0.0,0.0,0.0,0.0,1.0,0.0553845142291671,-11.713824759468674,0.294230231842446,0.3703839389075513,2528253.0,2528348.0,95.0,598.6938629902935,11.769455650759513,13.802140494965322,-3.1351221556568643,508.0,-3.1009523920156,0.0,0.0,0.0,0.0,0.0,0.0,0.0,0.0,0.0,0.0,0.0,0.0,0.0
11,2591.998897,3.5243425,1,12,2,7,2,4,1.0,0.5762884,2529768.0,2533294.0,2532864.0,2532864.0,0.0,2531651.0,2530285.0,2530285.0,2530285.0,2531278.0,2532286.0,2533295.0,3526.0,517.0,993.0,1009.0,0.0,578.0,0.0,0.0,0.0,1.0,0.0,0.0,0.0,0.2007688640807263,9.377290565425724,0.24923031403124998,0.8203831170195276,2531636.0,2531703.0,67.0,415.326561205223,9.194278985304777,10.461271289127259,-0.0621604788211304,358.0,-0.07783777250250974,1.0,0.6749987671679644,0.951921338313796,0.578075867266925,0.9380752097565052,2533009.0,2533040.0,31.0,56.814371636613615,0.45418678646890226,0.6156663585993769,-0.9151007005533593,-0.9531612139406611
12,2595.531701,3.5243643,1,13,1,4,2,3,2.0,-0.2914905,2533301.0,2536827.0,2535528.0,0.0,2535528.0,2535001.0,2533818.0,2533818.0,2533818.0,2534611.0,2535819.0,2536827.0,3526.0,517.0,793.0,1008.0,0.0,-291.0,0.0,0.0,0.0,1.0,0.0,0.0,0.0,-0.01384612855729079,-10.401904078665298,0.08307677134374868,0.837690777716142,2534978.0,2535045.0,67.0,478.3351614071572,10.415430393095408,11.52404772566228,-3.0690775743129244,367.0,-3.067331872760582,0.0,0.0,0.0,0.0,0.0,0.0,0.0,0.0,0.0,0.0,0.0,0.0,0.0
13,2599.064478,3.7243745,1,14,2,5,1,5,2.0,-0.1916067,2536834.0,2540559.0,2539361.0,0.0,2539361.0,2538967.0,2537550.0,2537550.0,2537551.0,2538743.0,2539552.0,2540560.0,3725.0,717.0,1192.0,1008.0,0.0,-191.0,0.0,0.0,0.0,1.0,0.0,0.0,0.0,-0.05884604636849078,8.66767647686453,-0.010384596417967108,0.4569222423906236,2538946.0,2539015.0,69.0,383.12357327862105,8.739025748336624,10.055474414992757,-0.05349907917544543,203.0,0.05821002641260435,0.0,0.0,0.0,0.0,0.0,0.0,0.0,0.0,0.0,0.0,0.0,0.0,0.0
14,2602.797268,3.5244135,1,15,2,2,2,4,1.0,0.4918575,2540567.0,2544093.0,2543578.0,2543578.0,0.0,2542393.0,2541083.0,2541083.0,2541083.0,2542076.0,2543085.0,2544093.0,3526.0,516.0,993.0,1008.0,0.0,493.0,0.0,0.0,0.0,1.0,0.0,0.0,0.0,0.06576911064713421,9.314982986917906,0.1903842676627592,0.9934597239856703,2542374.0,2542438.0,64.0,372.0807142203034,9.284012468623038,10.750984424894092,-0.0866091397102957,298.0,-0.08736591864491511,1.0,9.3288291154752,9.51921338313796,0.9865366597070249,1.1249979452799406,2542443.0,2542467.0,24.0,31.175149413598866,0.23540963654020128,0.2719010910554775,-0.628796286415433,-0.5491529026790102
15,2606.330109,3.5243945,1,16,1,9,1,4,1.0,-0.0748128,2544099.0,2547625.0,2546543.0,2546543.0,0.0,2545825.0,2544616.0,2544616.0,2544616.0,2545609.0,2546617.0,2547625.0,3526.0,517.0,993.0,1008.0,0.0,-74.0,0.0,0.0,0.0,1.0,0.0,0.0,0.0,-0.062307578507810525,-8.7992146981588,0.39807619602213284,0.2007688640807263,2545795.0,2545868.0,73.0,512.3392399381238,8.739134751258042,9.909984445289531,3.1190132902991983,186.0,3.105257725906136,1.0,-33.26532385889301,-11.879978302156175,18.726888873736858,2.312303469067694,2546351.0,2546414.0,63.0,10728.991302467537,26.95870209391064,38.30030142280977,0.6546465715588079,0.9764267774730448
16,2609.862903,3.52443,1,17,1,6,2,1,1.0,-0.5248118,2547632.0,2551158.0,2549626.0,2549626.0,0.0,2549092.0,2548149.0,2548149.0,2548149.0,2548542.0,2550150.0,2551158.0,3526.0,517.0,393.0,1008.0,0.0,-524.0,0.0,0.0,0.0,0.0,0.0,0.0,1.0,-0.048461449950519736,-9.574597897367127,0.11423056059765394,0.4049992603007802,2549074.0,2549143.0,69.0,519.2618711327722,9.530573018005063,10.846001036790867,-3.111078871672368,532.0,3.089227657898401,0.0,0.0,0.0,0.0,0.0,0.0,0.0,0.0,0.0,0.0,0.0,0.0,0.0
17,2613.395742,3.5244581,1,18,2,8,2,2,1.0,-0.4164918,2551165.0,2554691.0,2553267.0,2553267.0,0.0,2552675.0,2551682.0,2551682.0,2551682.0,2552275.0,2553683.0,2554692.0,3526.0,517.0,593.0,1009.0,0.0,-416.0,0.0,0.0,0.0,1.0,0.0,0.0,0.0,-0.1488458819908829,8.421907694972601,0.17999967124479208,0.7684601349296841,2552651.0,2552718.0,67.0,324.310751342126,8.590931415996323,9.501435976505006,-0.06855154364627002,376.0,-0.07073642191531482,1.0,0.031153789253905263,-0.006923064278647363,0.882690695527338,0.8203831170195276,2554043.0,2554070.0,27.0,23.53389323378195,0.07302110047408515,0.21329892508330664,2.119345729245445,-0.8428062780342477
18,2616.928694,3.5245405,1,19,2,2,2,1,2.0,-0.4331596,2554698.0,2558224.0,2556783.0,0.0,2556783.0,2556331.0,2555214.0,2555214.0,2555214.0,2555608.0,2557215.0,2558224.0,3526.0,516.0,394.0,1009.0,0.0,-432.0,0.0,0.0,0.0,0.0,0.0,0.0,1.0,0.17999967124479208,10.568057621352795,0.5573066744309868,0.9311521454778579,2556309.0,2556384.0,75.0,427.93499754687554,10.39478274958281,11.516671411095558,-0.03597247960224712,701.0,-0.049312982747198815,0.0,0.0,0.0,0.0,0.0,0.0,0.0,0.0,0.0,0.0,0.0,0.0,0.0
19,2620.461511,3.5243465,1,20,1,2,1,4,2.0,-0.1749447,2558231.0,2561757.0,2560574.0,0.0,2560574.0,2560007.0,2558747.0,2558748.0,2558748.0,2559740.0,2560748.0,2561757.0,3526.0,517.0,992.0,1009.0,1.0,-174.0,0.0,0.0,0.0,1.0,0.0,0.0,0.0,0.0,-10.474596253591079,0.43269151741536177,0.44999917811197626,2559985.0,2560047.0,62.0,531.7972578471197,10.47461055270615,11.528688784487539,-3.1399403087617714,245.0,-3.095637655129611,1.0,-10.478057785730403,-10.211519811002539,0.44999917811197626,0.29076869970312236,2560051.0,2560071.0,20.0,49.64547259914913,0.31047840057940296,0.33733514273733284,0.5385074567115725,0.6763435049542112
20,2623.994257,3.5244403,1,21,1,3,2,4,2.0,-0.2415291,2561763.0,2565289.0,2564041.0,0.0,2564041.0,2563573.0,2562280.0,2562280.0,2562280.0,2563273.0,2564281.0,2565289.0,3526.0,517.0,993.0,1008.0,0.0,-240.0,0.0,0.0,0.0,1.0,0.0,0.0,0.0,0.16961507482682103,-10.502288510705661,0.6126911886601539,1.1007672203046808,2563549.0,2563630.0,81.0,597.2502872171377,10.683058754475093,12.291832390204391,-3.09588982674807,276.0,-3.0835479154063665,0.0,0.0,0.0,0.0,0.0,0.0,0.0,0.0,0.0,0.0,0.0,0.0,0.0
21,2627.527169,3.5243451,1,22,1,10,2,3,1.0,-0.4078261,2565296.0,2568822.0,2567409.0,2567409.0,0.0,2566973.0,2565813.0,2565813.0,2565813.0,2566606.0,2567814.0,2568822.0,3526.0,517.0,793.0,1008.0,0.0,-405.0,0.0,0.0,0.0,1.0,0.0,0.0,0.0,-0.02769225711458158,-10.671903585532482,0.4119223245794236,1.1388440738372314,2566948.0,2567020.0,72.0,559.1815035993408,10.669004172534754,11.622958993141435,-3.073405844416329,342.0,-3.0736377479634847,1.0,-5.766912544111943,-5.472682312269497,1.789612116029936,1.3846128557291577,2567562.0,2567588.0,26.0,55.47158505042185,0.500595475583067,0.4736231150968602,0.9425084287444083,0.9462987780055873
22,2631.060003,3.5244472,1,23,2,5,2,2,1.0,0.0583546,2568829.0,2572355.0,2571407.0,2571407.0,0.0,2570262.0,2569346.0,2569346.0,2569346.0,2569938.0,2571347.0,2572356.0,3526.0,517.0,592.0,1009.0,0.0,60.0,0.0,0.0,0.0,1.0,0.0,0.0,0.0,0.03461532139322895,8.636522687610622,0.33576861751432235,0.5296144173164012,2570244.0,2570310.0,66.0,337.3968040797438,8.604091267012802,9.581893619347335,-0.022531397700922107,306.0,0.03902572890877095,1.0,-33.26532385889301,1.779227519611967,18.726888873736858,1.1042287524440024,2571487.0,2571534.0,47.0,10719.211439842165,39.225995603314914,50.99923618295512,0.46593656668288924,0.5381147131796846
23,2634.592753,3.5244536,1,24,1,2,2,4,2.0,-0.0498581,2572362.0,2575887.0,2574831.0,0.0,2574831.0,2574112.0,2572878.0,2572878.0,2572879.0,2573871.0,2574879.0,2575887.0,3525.0,517.0,992.0,1008.0,0.0,-48.0,0.0,0.0,0.0,1.0,0.0,0.0,0.0,0.19730733194140657,-10.606134474885348,0.46384530666926704,0.8099985206015565,2574091.0,2574165.0,74.0,542.6248362463733,10.808985933981402,11.95661755591145,-3.109562599062056,220.0,-3.072925392236454,0.0,0.0,0.0,0.0,0.0,0.0,0.0,0.0,0.0,0.0,0.0,0.0,0.0
24,2638.125588,3.5327445,1,25,2,2,2,2,2.0,0.3588336,2575895.0,2579429.0,2578774.0,0.0,2578774.0,2577404.0,2576411.0,2576411.0,2576411.0,2577004.0,2578412.0,2579429.0,3534.0,516.0,593.0,1017.0,0.0,362.0,0.0,0.0,0.0,1.0,0.0,0.0,0.0,-0.27346103900650787,9.23536774771348,0.3115378925390605,0.6299988493567683,2577380.0,2577451.0,71.0,354.97632816523105,9.514160093049306,10.426946140495508,-0.033478567814593255,376.0,-0.0385191440681958,0.0,0.0,0.0,0.0,0.0,0.0,0.0,0.0,0.0,0.0,0.0,0.0,0.0
25,2641.666899,3.52428081,1,26,1,5,1,1,2.0,-0.4664662,2579436.0,2582961.0,2581489.0,0.0,2581489.0,2580736.0,2579952.0,2579952.0,2579953.0,2580345.0,2581954.0,2582962.0,3525.0,517.0,392.0,1008.0,0.0,-465.0,0.0,0.0,0.0,1.0,0.0,0.0,0.0,-0.10038443204036315,-9.488059593884055,0.3703839389075513,0.7892293277656184,2580720.0,2580789.0,69.0,523.8976130377256,9.397014228150592,10.788085802671924,-3.097005704156383,375.0,-3.071908304220685,0.0,0.0,0.0,0.0,0.0,0.0,0.0,0.0,0.0,0.0,0.0,0.0,0.0
26,2645.199706,3.524303,1,27,1,4,2,2,1.0,0.2667073,2582969.0,2586495.0,2585754.0,2585754.0,0.0,2584618.0,2583485.0,2583485.0,2583485.0,2584078.0,2585486.0,2586495.0,3526.0,516.0,593.0,1009.0,0.0,268.0,0.0,0.0,0.0,0.0,0.0,0.0,1.0,-0.10038443204036315,-10.910749303145765,0.38769159960416577,1.2080747166236894,2584597.0,2584664.0,67.0,528.9748920893403,10.84144903161567,12.146281494150674,-3.065849266218304,519.0,-3.046262676233885,0.0,0.0,0.0,0.0,0.0,0.0,0.0,0.0,0.0,0.0,0.0,0.0,0.0
27,2648.73239,3.5244516,1,28,2,10,1,1,1.0,-0.4331778,2586501.0,2590027.0,2588587.0,2588587.0,0.0,2587868.0,2587018.0,2587018.0,2587018.0,2587411.0,2589019.0,2590028.0,3526.0,517.0,393.0,1009.0,0.0,-432.0,0.0,0.0,0.0,0.0,0.0,0.0,1.0,-0.10730749631901051,8.390753905718698,0.27346103900650787,0.4430761138333289,2587842.0,2587903.0,61.0,472.9866980436819,8.499753929756533,10.21789525372749,-0.019956617029223876,431.0,-0.0572837142860103,0.0,0.0,0.0,0.0,0.0,0.0,0.0,0.0,0.0,0.0,0.0,0.0,0.0
28,2652.265383,3.52425191,1,29,2,8,2,4,1.0,-0.0915373,2590034.0,2593560.0,2592462.0,2592462.0,0.0,2591877.0,2590551.0,2590551.0,2590551.0,2591544.0,2592552.0,2593560.0,3526.0,517.0,993.0,1008.0,0.0,-90.0,0.0,0.0,0.0,1.0,0.0,0.0,0.0,0.11769209273697762,8.373446245022084,0.294230231842446,1.156151734533846,2591861.0,2591925.0,64.0,378.6547172507577,8.300625596891754,9.372516166789115,-0.10402565218320463,317.0,-0.1039683577202229,1.0,-33.26532385889301,0.5849989315455684,18.726888873736858,1.5196126091627498,2592507.0,2592565.0,58.0,10740.705603082657,37.97281540078719,50.73759564077738,0.4702927066720681,0.5327790943326667
29,2655.798059,3.5244156,1,30,1,10,2,5,1.0,0.0334994,2593567.0,2597093.0,2596119.0,2596119.0,0.0,2595567.0,2594084.0,2594084.0,2594084.0,2595277.0,2596085.0,2597094.0,3526.0,517.0,1193.0,1009.0,0.0,34.0,0.0,0.0,0.0,1.0,0.0,0.0,0.0,0.0,-9.823828211398373,0.498460628062496,1.2357669737382728,2595546.0,2595612.0,66.0,486.19057385931643,9.851457829907224,10.845764616034907,-3.0666802476050883,269.0,-3.0569141438961887,0.0,0.0,0.0,0.0,0.0,0.0,0.0,0.0,0.0,0.0,0.0,0.0,0.0
30,2659.330947,3.5243454,1,31,2,9,1,2,1.0,-0.2415485,2597100.0,2600626.0,2599377.0,2599377.0,0.0,2598666.0,2597616.0,2597616.0,2597617.0,2598210.0,2599618.0,2600626.0,3526.0,517.0,593.0,1008.0,0.0,-241.0,0.0,0.0,0.0,0.0,0.0,0.0,1.0,-0.020769192835938154,8.968829772985616,0.3703839389075513,0.5157682887591105,2598641.0,2598720.0,79.0,336.4103504331202,8.990774503649934,10.46100269241385,-0.01617109698686313,431.0,-0.07750787570659311,0.0,0.0,0.0,0.0,0.0,0.0,0.0,0.0,0.0,0.0,0.0,0.0,0.0
31,2662.863688,3.5244523,1,32,1,1,1,1,2.0,-0.3581575,2600633.0,2604158.0,2602793.0,0.0,2602793.0,2602232.0,2601149.0,2601149.0,2601149.0,2601543.0,2603151.0,2604159.0,3525.0,516.0,394.0,1008.0,0.0,-358.0,0.0,0.0,0.0,0.0,0.0,0.0,1.0,0.22499958905598813,-9.53305951169525,0.4569222423906236,0.6057681243815065,2602209.0,2602287.0,78.0,560.9536575227293,9.759194255180072,10.8573453861109,-3.1263402004220313,666.0,-3.1010915204470364,0.0,0.0,0.0,0.0,0.0,0.0,0.0,0.0,0.0,0.0,0.0,0.0,0.0
32,2666.396615,3.5243513,1,33,2,3,1,4,2.0,-0.0246427,2604166.0,2607691.0,2606661.0,0.0,2606661.0,2605948.0,2604682.0,2604682.0,2604682.0,2605675.0,2606683.0,2607691.0,3525.0,516.0,993.0,1008.0,0.0,-22.0,0.0,0.0,0.0,1.0,0.0,0.0,0.0,0.2976917639817697,9.446521208212182,0.3426916817929658,0.39807619602213284,2605932.0,2605996.0,64.0,381.97510047994507,9.148997084054281,10.431799053017427,-0.006053652875666279,257.0,0.049129868039848264,1.0,0.2976917639817697,9.446521208212182,0.3426916817929658,0.39807619602213284,2605932.0,2605996.0,64.0,381.97510047994507,9.148997084054281,10.431799053017427,-0.006053652875666279,0.049129868039848264
33,2669.929395,3.5244257,1,34,2,4,1,3,1.0,0.0167344,2607698.0,2611225.0,2610234.0,2610234.0,0.0,2609408.0,2608215.0,2608215.0,2608215.0,2609008.0,2610216.0,2611225.0,3527.0,517.0,793.0,1009.0,0.0,18.0,0.0,0.0,0.0,1.0,0.0,0.0,0.0,0.010384596417967108,10.405365610804617,0.09346136776171972,0.21461499263802103,2609386.0,2609453.0,67.0,401.1164203717578,10.395687013866835,11.672698013747006,-0.01165448396182454,378.0,0.04301293169323466,1.0,9.754597568611915,9.564213300949156,1.9557656587174352,1.7723044553333216,2610006.0,2610025.0,19.0,35.93626860153995,0.26439399108268763,0.2448162334636502,2.374710892260353,2.3361971562191783
34,2673.462213,3.5243952,1,35,1,1,1,2,1.0,-0.0498716,2611231.0,2614757.0,2613700.0,2613700.0,0.0,2612764.0,2611748.0,2611748.0,2611748.0,2612341.0,2613749.0,2614758.0,3526.0,517.0,593.0,1009.0,0.0,-49.0,0.0,0.0,0.0,0.0,0.0,0.0,1.0,0.1869227355234355,-10.59574987846738,0.22153805691666445,1.2876899558281163,2612744.0,2612816.0,72.0,513.7833162932773,10.835253046055731,11.968254755307361,-3.0430365952100886,403.0,-3.030009181443124,0.0,0.0,0.0,0.0,0.0,0.0,0.0,0.0,0.0,0.0,0.0,0.0,0.0
35,2676.995153,3.5243141,1,36,2,9,1,2,1.0,-0.3915169,2614764.0,2618290.0,2616891.0,2616891.0,0.0,2616290.0,2615280.0,2615280.0,2615281.0,2615874.0,2617281.0,2618290.0,3526.0,517.0,593.0,1009.0,0.0,-390.0,0.0,0.0,0.0,1.0,0.0,0.0,0.0,0.19730733194140657,9.263060004828063,0.2007688640807263,0.5849989315455684,2616264.0,2616337.0,73.0,405.4912354061293,9.073891352154025,10.03165690398418,-0.04235723903695176,390.0,-0.06457124215265077,1.0,0.19730733194140657,9.263060004828063,0.2007688640807263,0.5849989315455684,2616264.0,2616337.0,73.0,405.4912354061293,9.073891352154025,10.03165690398418,-0.04235723903695176,-0.06457124215265077
36,2680.536219,3.5244069,1,37,2,9,1,4,1.0,0.3083967,2618306.0,2621831.0,2621133.0,2621133.0,0.0,2620056.0,2618824.0,2618824.0,2618824.0,2619813.0,2620823.0,2621831.0,3525.0,518.0,989.0,1008.0,0.0,310.0,0.0,0.0,0.0,1.0,0.0,0.0,0.0,0.024230724975261835,9.7372899079153,0.40153772816145655,0.08307677134374868,2620030.0,2620098.0,68.0,426.34576549941954,9.718278452087748,10.896715141836607,0.032775144404075945,217.0,0.06644137821315257,1.0,13.863436217988191,13.27843728644262,-1.007305852542963,-0.8342292455768183,2620416.0,2620437.0,21.0,84.61107788014158,0.6100649652195859,0.7070767237429509,-2.853940188584653,-2.874052498667816
37,2684.069132,3.5245039,1,38,1,3,1,4,n/a,n/a,2621838.0,2625364.0,0.0,0.0,0.0,2624931.0,2622354.0,2622354.0,2622355.0,2623348.0,2624354.0,2625364.0,3526.0,517.0,993.0,1010.0,0.0,-2624354.0,0.0,1.0,0.0,0.0,0.0,0.0,0.0,0.0,0.0,0.0,0.0,0.0,0.0,0.0,0.0,0.0,0.0,0.0,0.0,0.0,0.0,0.0,0.0,0.0,0.0,0.0,0.0,0.0,0.0,0.0,0.0,0.0,0.0
38,2687.601905,3.7409958,1,39,1,3,1,1,2.0,-0.6998162,2625371.0,2629113.0,2627407.0,0.0,2627407.0,2626880.0,2626104.0,2626104.0,2626104.0,2626497.0,2628105.0,2629113.0,3742.0,733.0,393.0,1008.0,0.0,-698.0,0.0,0.0,0.0,1.0,0.0,0.0,0.0,0.15923047840885393,-9.785751357865824,0.4292299852760381,1.1249979452799406,2626862.0,2626927.0,65.0,555.6271280490902,9.969290685801134,10.926447238321948,-3.0717447528671293,365.0,3.0489537068761723,0.0,0.0,0.0,0.0,0.0,0.0,0.0,0.0,0.0,0.0,0.0,0.0,0.0
39,2691.351482,3.5243011,1,40,1,1,1,4,2.0,-0.2165254,2629120.0,2632647.0,2631422.0,0.0,2631422.0,2630930.0,2629637.0,2629637.0,2629637.0,2630630.0,2631638.0,2632647.0,3527.0,517.0,993.0,1009.0,0.0,-216.0,0.0,0.0,0.0,1.0,0.0,0.0,0.0,0.23538418547395523,-10.945364624538994,0.33230708537499865,1.3153822129427,2630902.0,2630996.0,94.0,472.9303989837481,11.223884383717083,12.437847595303236,-3.0538924941625507,272.0,-3.025556992100188,1.0,-10.92805696384238,-10.997287606628838,1.2876899558281163,1.4123051128437414,2631002.0,2631021.0,19.0,33.86193182499518,0.14255461851043272,0.1834938564418408,-2.0778948311872307,-2.1954317495665125
40,2694.884307,3.524331797,1,41,1,5,1,3,2.0,-0.0666399,2632653.0,2636179.0,2635105.0,0.0,2635105.0,2634286.0,2633169.0,2633169.0,2633170.0,2633963.0,2635171.0,2636180.0,3526.0,517.0,793.0,1009.0,0.0,-66.0,0.0,0.0,0.0,1.0,0.0,0.0,0.0,0.08999983562239604,-11.869593705738204,0.16961507482682103,0.7373063456757749,2634269.0,2634352.0,83.0,468.785976671793,11.973059385702232,12.906178098709745,-3.094160817518301,306.0,-3.074221649715992,0.0,0.0,0.0,0.0,0.0,0.0,0.0,0.0,0.0,0.0,0.0,0.0,0.0
41,2698.417072,3.5243173,1,42,2,6,2,3,1.0,-0.4248138,2636186.0,2639711.0,2638279.0,2638279.0,0.0,2637796.0,2636702.0,2636702.0,2636702.0,2637496.0,2638703.0,2639712.0,3525.0,516.0,794.0,1009.0,0.0,-424.0,0.0,0.0,0.0,1.0,0.0,0.0,0.0,0.010384596417967108,9.42575201537624,0.2976917639817697,0.6888448957252552,2637780.0,2637847.0,67.0,390.0146492235317,9.42348897205561,10.649684770435156,-0.041520241845975754,284.0,-0.04096600752581849,1.0,0.010384596417967108,9.42575201537624,0.2976917639817697,0.6888448957252552,2637780.0,2637847.0,67.0,390.0146492235317,9.42348897205561,10.649684770435156,-0.041520241845975754,-0.04096600752581849
42,2701.949978,3.524248375,1,43,2,7,2,1,1.0,-0.12489,2639719.0,2643245.0,2642113.0,2642113.0,0.0,2641352.0,2640235.0,2640235.0,2640235.0,2640628.0,2642237.0,2643245.0,3526.0,516.0,393.0,1008.0,0.0,-124.0,0.0,0.0,0.0,0.0,0.0,0.0,1.0,-0.21115346049869735,9.938058771996026,0.33576861751432235,0.5746143351276013,2641334.0,2641408.0,74.0,399.3888287873232,10.152022272288548,11.707917491051733,-0.02352908128366323,706.0,0.0656831560418094,0.0,0.0,0.0,0.0,0.0,0.0,0.0,0.0,0.0,0.0,0.0,0.0,0.0
43,2705.4826,3.5244503,1,44,2,10,1,2,1.0,-0.46649,2643251.0,2646777.0,2645304.0,2645304.0,0.0,2644718.0,2643768.0,2643768.0,2643768.0,2644361.0,2645769.0,2646777.0,3526.0,517.0,593.0,1008.0,0.0,-465.0,0.0,0.0,0.0,1.0,0.0,0.0,0.0,-0.03807685353255263,9.259598472688742,0.46384530666926704,0.03461532139322895,2644695.0,2644762.0,67.0,392.01713508746104,9.307577818749856,10.787351612473287,0.046132547068110825,334.0,0.07322790138185684,0.0,0.0,0.0,0.0,0.0,0.0,0.0,0.0,0.0,0.0,0.0,0.0,0.0
44,2709.015546,3.5243414,1,45,1,9,2,3,1.0,0.1417521,2646784.0,2650310.0,2649444.0,2649444.0,0.0,2648417.0,2647301.0,2647301.0,2647301.0,2648094.0,2649302.0,2650310.0,3526.0,517.0,793.0,1008.0,0.0,142.0,0.0,0.0,0.0,1.0,0.0,0.0,0.0,0.0,-9.941520304135354,0.15576894626953025,0.6819218314466118,2648401.0,2648472.0,71.0,538.7676440746749,9.955433833646612,11.094988108963443,-3.0887171943263656,307.0,-3.0657061201801383,1.0,0.0,-9.941520304135354,0.15576894626953025,0.6819218314466118,2648401.0,2648472.0,71.0,538.7676440746749,9.955433833646612,11.094988108963443,-3.0887171943263656,-3.0657061201801383
45,2712.548299,3.5244266,1,46,2,5,1,2,1.0,-0.0165821,2650317.0,2653843.0,2652819.0,2652819.0,0.0,2651817.0,2650833.0,2650833.0,2650834.0,2651426.0,2652835.0,2653843.0,3526.0,517.0,592.0,1008.0,0.0,-16.0,0.0,0.0,0.0,1.0,0.0,0.0,0.0,-0.09346136776171972,9.789212890005144,0.38769159960416577,0.33230708537499865,2651801.0,2651870.0,69.0,445.3210236029077,9.882829449582959,11.019202971351797,0.005604144482893449,375.0,0.0521702956066787,1.0,-33.26532385889301,1.6961507482682183,18.726888873736858,0.24923031403124998,2652855.0,2652905.0,50.0,12595.84804258827,39.544008048707475,44.73795555882752,0.4861984100530818,0.6737742452459327
46,2716.081285,3.52427611,1,47,1,4,2,1,2.0,-0.4164922,2653850.0,2657376.0,2655952.0,0.0,2655952.0,2655267.0,2654367.0,2654367.0,2654367.0,2654760.0,2656367.0,2657376.0,3526.0,517.0,393.0,1009.0,0.0,-415.0,0.0,0.0,0.0,0.0,0.0,0.0,1.0,-0.04153838567187631,-11.11151816722649,0.10730749631901051,0.5642297387096302,2655248.0,2655309.0,61.0,566.6434600827507,11.079405683502127,12.226288812898899,-3.100340272692098,488.0,3.0937267486989533,0.0,0.0,0.0,0.0,0.0,0.0,0.0,0.0,0.0,0.0,0.0,0.0,0.0
47,2719.614014,3.5243487,1,48,2,8,1,2,1.0,-0.2498732,2657383.0,2660908.0,2659651.0,2659651.0,0.0,2658892.0,2657899.0,2657899.0,2657899.0,2658492.0,2659900.0,2660908.0,3525.0,516.0,593.0,1008.0,0.0,-249.0,0.0,0.0,0.0,1.0,0.0,0.0,0.0,-0.13153822129426843,9.609213218760353,0.3115378925390605,0.07615370706510526,2658862.0,2658946.0,84.0,444.2303325043052,9.743595041446325,11.496382466610598,0.02416018785326458,370.0,0.0702133967889101,1.0,-33.26532385889301,7.130756207005162,18.726888873736858,0.8099985206015565,2659478.0,2659524.0,46.0,18862.98445425673,44.1911557284569,56.58895336277019,0.4174608130972484,0.5470705425415637
48,2723.146823,3.5243727,1,49,1,9,2,4,1.0,-0.2665685,2660915.0,2664441.0,2663167.0,2663167.0,0.0,2662642.0,2661432.0,2661432.0,2661432.0,2662425.0,2663434.0,2664442.0,3526.0,517.0,993.0,1008.0,0.0,-267.0,0.0,0.0,0.0,1.0,0.0,0.0,0.0,0.031153789253905263,-10.114596911101499,0.588460463684892,0.8065369884622328,2662626.0,2662693.0,67.0,486.4615941820956,10.148094138527744,11.057991604854521,-3.1201015923406112,201.0,-3.0827081567695256,1.0,0.0553845142291671,-0.34961474607161314,0.8999983562239525,0.9138444847812434,2663860.0,2663881.0,21.0,47.745308188190826,0.40523587713849346,0.4156289762556482,-3.1074179299736002,-2.880453781207224
49,2726.6797,3.5244862,1,50,1,2,2,1,2.0,-0.4498169,2664448.0,2667974.0,2666517.0,0.0,2666517.0,2665891.0,2664965.0,2664965.0,2664965.0,2665358.0,2666966.0,2667974.0,3526.0,517.0,393.0,1008.0,0.0,-449.0,0.0,0.0,0.0,0.0,0.0,0.0,1.0,-0.08307677134374868,-10.858826321055922,0.6126911886601539,0.4049992603007802,2665870.0,2665945.0,75.0,504.8229238761181,10.777750892242208,11.909649203877143,3.1223210275362545,512.0,3.102926652305692,0.0,0.0,0.0,0.0,0.0,0.0,0.0,0.0,0.0,0.0,0.0,0.0,0.0
50,2730.212581,3.52427919,1,51,2,10,1,3,1.0,-0.3081406,2667982.0,2671507.0,2670192.0,2670192.0,0.0,2669507.0,2668497.0,2668498.0,2668498.0,2669291.0,2670499.0,2671508.0,3525.0,516.0,793.0,1009.0,1.0,-307.0,0.0,0.0,0.0,1.0,0.0,0.0,0.0,-0.14538434985156315,9.875751193488217,0.33230708537499865,0.9103829526419196,2669487.0,2669562.0,75.0,411.95504784819326,10.03779504105878,11.422418805392022,-0.05762180675859617,196.0,-0.08465123451579341,0.0,0.0,0.0,0.0,0.0,0.0,0.0,0.0,0.0,0.0,0.0,0.0,0.0
51,2733.745436,3.524267744,1,52,1,10,1,1,1.0,-0.8332231,2671514.0,2675040.0,2673199.0,2673199.0,0.0,2673097.0,2672030.0,2672030.0,2672030.0,2672424.0,2674032.0,2675040.0,3526.0,516.0,394.0,1008.0,0.0,-833.0,0.0,0.0,0.0,0.0,0.0,0.0,1.0,-0.26307644258854074,-9.81690514711973,-0.03461532139322895,0.702691024282546,2673076.0,2673161.0,85.0,490.1386363167319,9.582236876789148,10.90805453219683,-3.064571406494413,652.0,-3.036998088116289,0.0,0.0,0.0,0.0,0.0,0.0,0.0,0.0,0.0,0.0,0.0,0.0,0.0
52,2737.278196,3.5243426,1,53,1,9,1,3,1.0,-0.4248443,2675047.0,2678572.0,2677141.0,2677141.0,0.0,2676606.0,2675563.0,2675563.0,2675563.0,2676356.0,2677564.0,2678572.0,3525.0,516.0,793.0,1008.0,0.0,-423.0,0.0,0.0,0.0,1.0,0.0,0.0,0.0,-0.08307677134374868,-11.184210342152273,0.2596149104492171,0.8446138419947854,2676586.0,2676641.0,55.0,523.7984948165774,11.116536794651537,12.058440355004885,-3.088944127673358,230.0,-3.0714918802464646,0.0,0.0,0.0,0.0,0.0,0.0,0.0,0.0,0.0,0.0,0.0,0.0,0.0
53,2740.810996,3.5243773,1,54,1,7,2,5,1.0,-0.0917207,2678579.0,2682106.0,2681006.0,2681006.0,0.0,2680512.0,2679096.0,2679096.0,2679096.0,2680289.0,2681097.0,2682106.0,3527.0,517.0,1193.0,1009.0,0.0,-91.0,0.0,0.0,0.0,1.0,0.0,0.0,0.0,0.017307660696614473,-9.723443779358009,0.5849989315455684,0.9276906133385341,2680493.0,2680570.0,77.0,550.290774722704,9.746777734497506,11.149448326488523,-3.1064259209795773,204.0,-3.0987351338973124,1.0,-1.2842284236887946,-33.26532385889301,2.2603804869778505,18.726888873736858,2681191.0,2681225.0,34.0,12139.429267707943,35.97132696588833,41.727332036523265,-2.666110004335183,0.6750130087565421
54,2744.343908,3.5242877,1,55,1,10,1,4,1.0,-0.0081041,2682112.0,2685638.0,2684623.0,2684623.0,0.0,2683929.0,2682629.0,2682629.0,2682629.0,2683622.0,2684628.0,2685638.0,3526.0,517.0,993.0,1010.0,0.0,-5.0,0.0,0.0,0.0,1.0,0.0,0.0,0.0,0.024230724975261835,-9.48459806174473,0.32192248895702763,-0.49153756378385255,2683907.0,2683982.0,75.0,515.4287351705758,9.543560245137032,10.933452420372914,3.056252563833679,285.0,3.0391517434493505,0.0,0.0,0.0,0.0,0.0,0.0,0.0,0.0,0.0,0.0,0.0,0.0,0.0
55,2747.876743,3.524266022,1,56,1,7,1,4,1.0,-0.0998401,2685645.0,2689171.0,2688064.0,2688064.0,0.0,2687411.0,2686162.0,2686162.0,2686162.0,2687155.0,2688163.0,2689171.0,3526.0,517.0,993.0,1008.0,0.0,-99.0,0.0,0.0,0.0,1.0,0.0,0.0,0.0,0.13153822129426843,-10.512673107123632,0.373845471046871,-0.7165371528398408,2687391.0,2687441.0,50.0,425.7371825020241,10.699914442204388,10.78910036907121,3.039509713177167,236.0,3.0406789500244384,1.0,-10.53690383209889,-9.97267409338926,-0.7303832813971315,-0.8134600527408802,2687446.0,2687478.0,32.0,85.40394782148205,0.5703130263120764,0.5999744954133671,0.14618887374617417,-0.409437209526142
56,2751.409514,3.5243081,1,57,1,8,1,5,1.0,0.0418392,2689178.0,2692703.0,2691738.0,2691738.0,0.0,2691144.0,2689694.0,2689694.0,2689695.0,2690887.0,2691695.0,2692704.0,3525.0,517.0,1192.0,1009.0,0.0,43.0,0.0,0.0,0.0,1.0,0.0,0.0,0.0,0.0034615321393236813,-10.017674011200455,0.5088452244804671,-0.5123067566197868,2691124.0,2691189.0,65.0,452.9558058882864,10.073028787137106,10.979540152303468,3.0400433399546043,237.0,3.0065619080555765,0.0,0.0,0.0,0.0,0.0,0.0,0.0,0.0,0.0,0.0,0.0,0.0,0.0
57,2754.942239,3.5244303,1,58,1,8,1,3,1.0,-0.1498097,2692711.0,2696237.0,2695079.0,2695079.0,0.0,2694570.0,2693227.0,2693227.0,2693227.0,2694020.0,2695228.0,2696237.0,3526.0,516.0,793.0,1009.0,0.0,-149.0,0.0,0.0,0.0,0.0,0.0,0.0,1.0,0.010384596417967108,-9.903443450602802,0.15923047840885393,0.10384596417968683,2694546.0,2694611.0,65.0,448.4168873306277,9.913982751160708,10.85958767695229,3.1360061195291373,526.0,3.1039708601696967,0.0,0.0,0.0,0.0,0.0,0.0,0.0,0.0,0.0,0.0,0.0,0.0,0.0
58,2758.475039,3.5244725,1,59,1,3,1,3,2.0,-0.1914862,2696243.0,2699770.0,2698571.0,0.0,2698571.0,2697993.0,2696760.0,2696760.0,2696760.0,2697553.0,2698761.0,2699770.0,3527.0,517.0,793.0,1009.0,0.0,-190.0,0.0,0.0,0.0,0.0,0.0,0.0,1.0,0.11769209273697762,-10.973056881653575,0.45346071025129997,-0.1730766069661447,2697974.0,2698050.0,76.0,560.7198308778444,11.108432014591939,12.203128223043793,3.0851607484457517,421.0,3.064929540737948,0.0,0.0,0.0,0.0,0.0,0.0,0.0,0.0,0.0,0.0,0.0,0.0,0.0
59,2762.008066,3.5242657,1,60,1,5,1,2,2.0,0.2167358,2699776.0,2703302.0,2702512.0,0.0,2702512.0,2701476.0,2700293.0,2700293.0,2700293.0,2700886.0,2702294.0,2703302.0,3526.0,517.0,593.0,1008.0,0.0,218.0,0.0,0.0,0.0,0.0,0.0,0.0,1.0,-0.05192298208984342,-8.439215355669216,0.3115378925390605,0.33923014965364207,2701455.0,2701522.0,67.0,460.5720670864835,8.387338089108296,9.484247480386346,-3.1382909734699416,569.0,3.0955893278295568,0.0,0.0,0.0,0.0,0.0,0.0,0.0,0.0,0.0,0.0,0.0,0.0,0.0
60,2765.54071,3.5244567,1,61,2,1,1,4,2.0,-0.0915421,2703309.0,2706835.0,2705736.0,0.0,2705736.0,2705159.0,2703826.0,2703826.0,2703826.0,2704819.0,2705827.0,2706835.0,3526.0,517.0,993.0,1008.0,0.0,-91.0,0.0,0.0,0.0,1.0,0.0,0.0,0.0,0.3011532961210934,9.166137104927023,0.5053836923411433,0.1107690284583342,2705140.0,2705207.0,67.0,381.4192019747401,8.873762373612594,10.053219635907395,0.044484495511450534,321.0,0.07547788929838355,1.0,9.16959863706635,9.408444354679625,0.10384596417968683,0.07615370706510526,2705210.0,2705232.0,22.0,25.047985035783885,0.24044570681611346,0.2520033435954695,0.11542666036692048,0.27829965900511133
61,2769.073577,3.5244125,1,62,2,1,2,4,2.0,-0.1081989,2706842.0,2710368.0,2709252.0,0.0,2709252.0,2708735.0,2707358.0,2707358.0,2707359.0,2708351.0,2709360.0,2710369.0,3526.0,517.0,992.0,1009.0,0.0,-108.0,0.0,0.0,0.0,1.0,0.0,0.0,0.0,0.12807668915494866,10.619980603442638,0.32192248895702763,1.8138428410051959,2708703.0,2708784.0,81.0,419.88074113149736,10.597446583186954,11.51748083140316,-0.14125034368175843,352.0,-0.14780509144421602,0.0,0.0,0.0,0.0,0.0,0.0,0.0,0.0,0.0,0.0,0.0,0.0,0.0
62,2772.606553,3.524283622,1,63,1,4,1,3,1.0,-0.0496123,2710375.0,2713901.0,2712845.0,2712845.0,0.0,2712334.0,2710891.0,2710891.0,2710891.0,2711685.0,2712893.0,2713901.0,3526.0,516.0,794.0,1008.0,0.0,-48.0,0.0,0.0,0.0,0.0,0.0,0.0,1.0,-0.14538434985156315,-11.97343966991789,0.13153822129426843,2.0561500907577983,2712316.0,2712387.0,71.0,420.3560914251013,11.983614792817285,13.02002064970865,-2.9802904763422946,631.0,-2.9592660891413596,0.0,0.0,0.0,0.0,0.0,0.0,0.0,0.0,0.0,0.0,0.0,0.0,0.0
63,2776.139234,3.5244786,1,64,2,3,1,5,2.0,-0.0417248,2713907.0,2717433.0,2716384.0,0.0,2716384.0,2715884.0,2714424.0,2714424.0,2714424.0,2715617.0,2716425.0,2717433.0,3526.0,517.0,1193.0,1008.0,0.0,-41.0,0.0,0.0,0.0,1.0,0.0,0.0,0.0,-0.017307660696614473,10.038443204036394,0.4396145816940092,0.0553845142291671,2715866.0,2715940.0,74.0,358.45433245855327,10.063088899454415,11.09036705407832,0.03819140350064496,249.0,0.06559235177370489,0.0,0.0,0.0,0.0,0.0,0.0,0.0,0.0,0.0,0.0,0.0,0.0,0.0
64,2779.67216,3.5243542,1,65,2,4,1,1,2.0,-0.3914866,2717440.0,2720966.0,2719567.0,0.0,2719567.0,2718707.0,2717957.0,2717957.0,2717957.0,2718350.0,2719958.0,2720966.0,3526.0,517.0,393.0,1008.0,0.0,-391.0,0.0,0.0,0.0,1.0,0.0,0.0,0.0,0.07615370706510526,10.377673353690035,0.7511524742330696,0.5538451422916632,2718683.0,2718756.0,73.0,442.3250278764839,10.303409009305478,11.482192215804744,0.01915088422669633,333.0,0.043123520296829226,0.0,0.0,0.0,0.0,0.0,0.0,0.0,0.0,0.0,0.0,0.0,0.0,0.0
65,2783.20493,3.5244,1,66,1,6,2,4,1.0,-0.0915735,2720973.0,2724499.0,2723400.0,2723400.0,0.0,2722839.0,2721490.0,2721490.0,2721490.0,2722483.0,2723490.0,2724499.0,3526.0,517.0,993.0,1009.0,0.0,-90.0,0.0,0.0,0.0,1.0,0.0,0.0,0.0,0.14538434985156315,-10.858826321055922,0.46384530666926704,1.484997287769521,2722808.0,2722887.0,79.0,431.1985598738837,11.0514887620727,11.769861856223578,-3.049061171478179,325.0,-3.0298961343165636,1.0,-1.8969196123489445,-1.1803824595091077,0.5330759494557249,0.5399990137343723,2723538.0,2723571.0,33.0,60.024848196322736,0.7165705968143166,0.7700644863613479,-0.009661535118064283,-0.421419206887806
66,2786.737772,3.5243702,1,67,2,6,1,3,1.0,-0.2664886,2724506.0,2728032.0,2726758.0,2726758.0,0.0,2726282.0,2725022.0,2725022.0,2725023.0,2725816.0,2727023.0,2728033.0,3526.0,517.0,793.0,1010.0,0.0,-265.0,0.0,0.0,0.0,0.0,0.0,0.0,1.0,0.14538434985156315,10.343058032296806,0.588460463684892,0.5365374815950487,2726265.0,2726337.0,72.0,408.49379300239735,10.19780586840647,11.84373477535418,0.005091605695021456,449.0,0.051461693089126924,0.0,0.0,0.0,0.0,0.0,0.0,0.0,0.0,0.0,0.0,0.0,0.0,0.0
67,2790.270641,3.5243765,1,68,2,7,2,1,1.0,-0.3079031,2728039.0,2731565.0,2730250.0,2730250.0,0.0,2729539.0,2728555.0,2728556.0,2728556.0,2728949.0,2730556.0,2731565.0,3526.0,517.0,393.0,1009.0,1.0,-306.0,0.0,0.0,0.0,0.0,0.0,0.0,1.0,-0.0034615321393236813,9.460367336769469,0.4361530495546855,0.8861522276666618,2729514.0,2729587.0,73.0,450.47821220621944,9.474521419063494,10.869323912760516,-0.047513591251514935,565.0,-0.07586815198820687,0.0,0.0,0.0,0.0,0.0,0.0,0.0,0.0,0.0,0.0,0.0,0.0,0.0
68,2793.803533,3.524269,1,69,1,2,2,3,2.0,-0.3498144,2731572.0,2735097.0,2733741.0,0.0,2733741.0,2733115.0,2732088.0,2732088.0,2732088.0,2732881.0,2734089.0,2735097.0,3525.0,516.0,793.0,1008.0,0.0,-348.0,0.0,0.0,0.0,1.0,0.0,0.0,0.0,0.024230724975261835,-10.60959600702467,0.4223069209973947,0.8238446491588473,2733098.0,2733162.0,64.0,503.98621480541533,10.641405147504413,11.91031521826784,-3.103850168469973,217.0,-3.088963765964983,0.0,0.0,0.0,0.0,0.0,0.0,0.0,0.0,0.0,0.0,0.0,0.0,0.0
69,2797.33639,3.524289397,1,70,2,7,2,1,1.0,-0.5081536,2735105.0,2738630.0,2737115.0,2737115.0,0.0,2736521.0,2735621.0,2735621.0,2735621.0,2736014.0,2737622.0,2738630.0,3525.0,516.0,393.0,1008.0,0.0,-507.0,0.0,0.0,0.0,0.0,0.0,0.0,1.0,0.07269217492578157,9.283829197664005,0.38769159960416577,0.6888448957252552,2736495.0,2736565.0,70.0,377.9583452263009,9.216058732420457,10.371693618001148,-0.03268283387170594,481.0,-0.04674174014943099,0.0,0.0,0.0,0.0,0.0,0.0,0.0,0.0,0.0,0.0,0.0,0.0,0.0
70,2800.869116,3.5243795,1,71,2,9,1,3,1.0,-0.3412962,2738637.0,2742163.0,2740815.0,2740815.0,0.0,2740297.0,2739154.0,2739154.0,2739154.0,2739947.0,2741155.0,2742163.0,3526.0,517.0,793.0,1008.0,0.0,-340.0,0.0,0.0,0.0,1.0,0.0,0.0,0.0,-0.1384612855729158,10.20459674672389,0.44999917811197626,0.10384596417968683,2740276.0,2740349.0,73.0,402.1249965727897,10.348848801049089,11.534480080434243,0.03345471551194986,329.0,0.06095865640703323,1.0,3.091148200415343,0.6992294921432263,2.0526885586184767,1.7134584089648328,2741051.0,2741110.0,59.0,237.44879789013473,2.4158543419287897,2.8329399814232197,3.0007087698648878,2.9981403902861348
71,2804.40199,3.5243085,1,72,1,5,2,5,2.0,0.0022413,2742170.0,2745695.0,2744690.0,0.0,2744690.0,2744046.0,2742686.0,2742686.0,2742686.0,2743880.0,2744688.0,2745695.0,3525.0,516.0,1194.0,1007.0,0.0,2.0,0.0,0.0,0.0,1.0,0.0,0.0,0.0,0.11769209273697762,-10.789595678269464,0.31846095681770786,1.4538434985156157,2744027.0,2744104.0,77.0,566.2336094055406,10.966221775777612,12.42939069819578,-3.0378722612253477,147.0,-3.021831913222707,1.0,0.11769209273697762,-10.789595678269464,0.31846095681770786,1.4538434985156157,2744027.0,2744104.0,77.0,566.2336094055406,10.966221775777612,12.42939069819578,-3.0378722612253477,-3.021831913222707
72,2807.934729,3.5244081,1,73,1,6,1,5,1.0,0.0917598,2745703.0,2749228.0,2748313.0,2748313.0,0.0,2747752.0,2746219.0,2746219.0,2746220.0,2747412.0,2748221.0,2749229.0,3525.0,517.0,1192.0,1008.0,0.0,92.0,0.0,0.0,0.0,1.0,0.0,0.0,0.0,0.2976917639817697,-9.88959732204551,0.7407678778150986,-0.1107690284583342,2747730.0,2747798.0,68.0,517.8600679422173,10.222816345070289,10.883423121119966,3.0581983425773474,318.0,3.0284416719993086,1.0,0.2976917639817697,-9.88959732204551,0.7407678778150986,-0.1107690284583342,2747730.0,2747798.0,68.0,517.8600679422173,10.222816345070289,10.883423121119966,3.0581983425773474,3.0284416719993086
73,2811.467707,3.5242592,1,74,1,8,2,3,1.0,-0.0915883,2749236.0,2752762.0,2751663.0,2751663.0,0.0,2751062.0,2749752.0,2749752.0,2749752.0,2750545.0,2751753.0,2752762.0,3526.0,516.0,793.0,1009.0,0.0,-90.0,0.0,0.0,0.0,0.0,0.0,0.0,1.0,0.08999983562239604,-11.056133652997325,0.6957679600039025,1.3396129379179598,2751039.0,2751076.0,37.0,551.2863514714504,11.164713525286492,11.177050896359924,-3.083892796690662,494.0,-3.067196054764975,0.0,0.0,0.0,0.0,0.0,0.0,0.0,0.0,0.0,0.0,0.0,0.0,0.0
74,2815.000417,3.5243813,1,75,2,2,2,4,2.0,-0.0332012,2752768.0,2756295.0,2755254.0,0.0,2755254.0,2754668.0,2753285.0,2753285.0,2753285.0,2754278.0,2755286.0,2756295.0,3527.0,517.0,993.0,1009.0,0.0,-32.0,0.0,0.0,0.0,1.0,0.0,0.0,0.0,-0.1107690284583342,9.910366514881446,0.4292299852760381,1.0003827882643157,2754650.0,2754715.0,65.0,408.6375791527959,10.037398721897482,11.414806242640864,-0.05693322449085333,372.0,0.06798019333723418,0.0,0.0,0.0,0.0,0.0,0.0,0.0,0.0,0.0,0.0,0.0,0.0,0.0
75,2818.53334,3.5242947,1,76,2,8,2,2,1.0,-0.557797,2756301.0,2759827.0,2758264.0,2758264.0,0.0,2757777.0,2756818.0,2756818.0,2756818.0,2757411.0,2758819.0,2759827.0,3526.0,517.0,593.0,1008.0,0.0,-555.0,0.0,0.0,0.0,1.0,0.0,0.0,0.0,0.13153822129426843,10.017674011200459,0.9553828704531196,1.4469204342369701,2757763.0,2757833.0,70.0,428.5913289273418,9.898347843608784,11.105230094662868,-0.04967897831452408,352.0,-0.07144071224724806,1.0,0.13153822129426843,10.017674011200459,0.9553828704531196,1.4469204342369701,2757763.0,2757833.0,70.0,428.5913289273418,9.898347843608784,11.105230094662868,-0.04967897831452408,-0.07144071224724806
76,2822.066124,3.5243581,1,77,1,7,2,1,1.0,-0.5664868,2759834.0,2763360.0,2761786.0,2761786.0,0.0,2761311.0,2760351.0,2760351.0,2760351.0,2760744.0,2762352.0,2763360.0,3526.0,517.0,393.0,1008.0,0.0,-566.0,0.0,0.0,0.0,0.0,0.0,0.0,1.0,0.02769225711458158,-11.312287031307218,0.7511524742330696,1.2357669737382728,2761294.0,2761359.0,65.0,526.5000625119495,11.350329575609955,12.39836783712922,-3.098883597824789,550.0,-3.0848861763123456,0.0,0.0,0.0,0.0,0.0,0.0,0.0,0.0,0.0,0.0,0.0,0.0,0.0
77,2825.598878,3.5244364,1,78,2,1,2,1,2.0,-0.474829,2763367.0,2766893.0,2765411.0,0.0,2765411.0,2764833.0,2763883.0,2763883.0,2763883.0,2764276.0,2765884.0,2766893.0,3526.0,516.0,393.0,1009.0,0.0,-473.0,0.0,0.0,0.0,0.0,0.0,0.0,1.0,-0.14192281771223947,9.616136283039,0.46730683880859075,0.8342292455768183,2764815.0,2764883.0,68.0,427.538146045649,9.764955169704706,11.13442101363361,-0.037584279605256635,539.0,-0.0591026836105877,0.0,0.0,0.0,0.0,0.0,0.0,0.0,0.0,0.0,0.0,0.0,0.0,0.0
78,2829.131802,3.5243222,1,79,2,5,2,1,2.0,-0.4748516,2766900.0,2770426.0,2768944.0,0.0,2768944.0,2768399.0,2767416.0,2767416.0,2767416.0,2767809.0,2769418.0,2770426.0,3526.0,516.0,393.0,1008.0,0.0,-474.0,0.0,0.0,0.0,0.0,0.0,0.0,1.0,0.3773070031861947,10.60959600702467,0.0553845142291671,0.6507680421927026,2768385.0,2768456.0,71.0,387.5825528740069,10.24959608001428,12.046829104557704,-0.05812120436525241,576.0,-0.08025389412262322,0.0,0.0,0.0,0.0,0.0,0.0,0.0,0.0,0.0,0.0,0.0,0.0,0.0
79,2832.664701,3.524277663,1,80,1,8,1,1,1.0,-0.5581412,2770433.0,2773959.0,2772393.0,2772393.0,0.0,2771825.0,2770949.0,2770949.0,2770949.0,2771343.0,2772950.0,2773959.0,3526.0,516.0,394.0,1009.0,0.0,-557.0,0.0,0.0,0.0,0.0,0.0,0.0,1.0,-0.14192281771223947,-11.509594363248624,0.6749987671679644,0.39807619602213284,2771804.0,2771889.0,85.0,593.6538832184204,11.371044036393824,12.72051599860079,3.1172369347469258,461.0,3.1023970516627384,0.0,0.0,0.0,0.0,0.0,0.0,0.0,0.0,0.0,0.0,0.0,0.0,0.0
80,2895.063964,3.799535,2,1,1,7,1,3,1.0,-0.3746435,2832833.0,2836633.0,2835255.0,2835255.0,0.0,2834699.0,2833616.0,2833616.0,2833616.0,2834406.0,2835624.0,2836634.0,3800.0,783.0,790.0,1010.0,0.0,-369.0,0.0,0.0,0.0,1.0,0.0,0.0,0.0,0.3911531317434855,-10.287673518067644,-0.062307578507810525,-0.19730733194140657,2834682.0,2834751.0,69.0,532.2673956782379,10.679679936690215,11.727161046796864,3.1289515117428577,276.0,3.1005521953587305,1.0,-10.02113554333978,-33.26532385889301,0.0692306427864579,18.726888873736858,2835441.0,2835485.0,44.0,9720.881968343798,29.806048062630726,48.84945257682391,-2.4652193558740403,2.3870649688208943
81,2898.871941,3.524280539,2,2,1,8,2,2,1.0,-0.6579624,2836640.0,2840165.0,2838504.0,2838504.0,0.0,2838072.0,2837156.0,2837156.0,2837157.0,2837749.0,2839157.0,2840165.0,3525.0,517.0,592.0,1008.0,0.0,-653.0,0.0,0.0,0.0,1.0,0.0,0.0,0.0,0.3080763603997368,-9.515751850998637,0.21807652477734077,0.11769209273697762,2838050.0,2838117.0,67.0,565.8314030167171,9.824341085348301,11.301912506724067,3.1313745455211204,301.0,-3.0987005214107386,0.0,0.0,0.0,0.0,0.0,0.0,0.0,0.0,0.0,0.0,0.0,0.0,0.0
82,2902.40465,3.5243991,2,3,1,10,1,2,1.0,-0.3913411,2840172.0,2843699.0,2842302.0,2842302.0,0.0,2841732.0,2840689.0,2840689.0,2840689.0,2841282.0,2842690.0,2843699.0,3527.0,517.0,593.0,1009.0,0.0,-388.0,0.0,0.0,0.0,0.0,0.0,0.0,1.0,0.3461532139322894,-10.201135214584571,-0.0,0.05192298208984342,2841710.0,2841772.0,62.0,541.2524875943802,10.547416232916703,11.865888308779228,-3.136669818398368,428.0,3.1080384102304754,0.0,0.0,0.0,0.0,0.0,0.0,0.0,0.0,0.0,0.0,0.0,0.0,0.0
83,2905.937477,3.5244191,2,4,2,4,2,2,1.0,-0.2413192,2843705.0,2847231.0,2845983.0,2845983.0,0.0,2845331.0,2844221.0,2844222.0,2844222.0,2844814.0,2846222.0,2847232.0,3526.0,517.0,592.0,1010.0,1.0,-239.0,0.0,0.0,0.0,0.0,0.0,0.0,1.0,0.21807652477734077,9.882674257766864,0.05192298208984342,0.5226913530377578,2845303.0,2845377.0,74.0,402.7151277906743,9.676056645121047,10.932038590322447,-0.04867213088893329,489.0,0.06241880999595715,0.0,0.0,0.0,0.0,0.0,0.0,0.0,0.0,0.0,0.0,0.0,0.0,0.0
84,2909.470289,3.5244503,2,5,1,6,2,5,1.0,0.0594051,2847238.0,2850765.0,2849818.0,2849818.0,0.0,2849182.0,2847755.0,2847756.0,2847756.0,2848949.0,2849756.0,2850768.0,3527.0,518.0,1193.0,1012.0,1.0,62.0,0.0,0.0,0.0,1.0,0.0,0.0,0.0,0.418845388858071,-9.92421264343874,0.7788447313476512,0.9899981918463486,2849155.0,2849210.0,55.0,499.89452723274536,10.345213156012791,12.05702080267904,-3.121180495706434,206.0,-3.099089530648551,1.0,-9.917289579160093,-10.540365364238214,0.9796135954283796,0.9380752097565052,2849212.0,2849231.0,19.0,61.70908553731454,0.6244588628844515,0.6089640833876786,3.0750244898139703,3.039095954339442
85,2913.011497,3.524512,2,6,1,8,1,5,1.0,0.033652,2850781.0,2854305.0,2853332.0,2853332.0,0.0,2852780.0,2851297.0,2851297.0,2851298.0,2852487.0,2853297.0,2854305.0,3524.0,517.0,1189.0,1008.0,0.0,35.0,0.0,0.0,0.0,1.0,0.0,0.0,0.0,0.3461532139322894,-8.57767664124213,0.33576861751432235,-0.5676912708489539,2852762.0,2852833.0,71.0,425.25141093338334,8.969446975927987,9.91712767720795,3.040695170259068,275.0,3.0265026664762806,0.0,0.0,0.0,0.0,0.0,0.0,0.0,0.0,0.0,0.0,0.0,0.0,0.0
86,2916.54435,3.5244287,2,7,2,7,1,3,1.0,-0.3830461,2854312.0,2857838.0,2856447.0,2856447.0,0.0,2855995.0,2854828.0,2854828.0,2854828.0,2855621.0,2856829.0,2857838.0,3526.0,516.0,793.0,1009.0,0.0,-382.0,0.0,0.0,0.0,1.0,0.0,0.0,0.0,0.29076869970312236,10.571519153492122,0.4846144995052052,0.26653797472786445,2855970.0,2856061.0,91.0,425.4767652608753,10.28306312650767,11.075678261148234,0.021208940577221086,349.0,0.05941651855263671,0.0,0.0,0.0,0.0,0.0,0.0,0.0,0.0,0.0,0.0,0.0,0.0,0.0
87,2920.077191,3.5243709,2,8,1,5,2,3,2.0,0.0016199,2857844.0,2861371.0,2860364.0,0.0,2860364.0,2859744.0,2858361.0,2858361.0,2858361.0,2859154.0,2860362.0,2861371.0,3527.0,517.0,793.0,1009.0,0.0,2.0,0.0,0.0,0.0,0.0,0.0,0.0,1.0,0.19384579980208289,-10.509211574984308,0.8446138419947854,0.8030754563229131,2859729.0,2859797.0,68.0,521.08962774035,10.703137979370982,11.892761039994287,3.1377116898923734,575.0,-3.1019978614698056,0.0,0.0,0.0,0.0,0.0,0.0,0.0,0.0,0.0,0.0,0.0,0.0,0.0
88,2923.610003,3.524507,2,9,2,8,2,2,1.0,-0.624792,2861377.0,2864904.0,2863271.0,2863271.0,0.0,2862794.0,2861894.0,2861894.0,2861894.0,2862487.0,2863895.0,2864904.0,3527.0,517.0,593.0,1009.0,0.0,-624.0,0.0,0.0,0.0,1.0,0.0,0.0,0.0,0.04153838567187631,10.249596664535087,0.5573066744309868,0.4396145816940092,2862777.0,2862844.0,67.0,418.4120758712756,10.20873671192281,11.676008056728154,0.01152882117029029,290.0,0.04270399260204656,0.0,0.0,0.0,0.0,0.0,0.0,0.0,0.0,0.0,0.0,0.0,0.0,0.0
89,2927.142806,3.5244377,2,10,1,3,2,3,2.0,-0.3913703,2864910.0,2868436.0,2867037.0,0.0,2867037.0,2866526.0,2865427.0,2865427.0,2865427.0,2866220.0,2867428.0,2868436.0,3526.0,517.0,793.0,1008.0,0.0,-391.0,0.0,0.0,0.0,1.0,0.0,0.0,0.0,0.21807652477734077,-10.519596171402275,0.5573066744309868,0.41538385671874734,2866507.0,2866578.0,71.0,528.6573577364311,10.738610571971991,11.91392885406164,3.128376144005068,287.0,3.101195915999648,1.0,0.21807652477734077,-10.519596171402275,0.5573066744309868,0.41538385671874734,2866507.0,2866578.0,71.0,528.6573577364311,10.738610571971991,11.91392885406164,3.128376144005068,3.101195915999648
90,2930.675748,3.524461672,2,11,1,9,1,5,1.0,-0.2161851,2868444.0,2871970.0,2870746.0,2870746.0,0.0,2870320.0,2868959.0,2868959.0,2868959.0,2870152.0,2870961.0,2871970.0,3526.0,515.0,1193.0,1009.0,0.0,-215.0,0.0,0.0,0.0,1.0,0.0,0.0,0.0,0.06576911064713421,-9.96228949697129,0.2319226533346355,-0.8965368240846289,2870304.0,2870380.0,76.0,508.0704995511545,10.091351754349231,11.326747268951443,3.029533865092419,152.0,3.0079505871615435,1.0,-1.3188437450820236,-1.325766809360667,-0.01384612855729079,-0.05884604636849078,2871515.0,2871534.0,19.0,32.436154904545425,0.04552934682181354,0.19824639110242268,1.7234456551901027,-1.1383885512243657
91,2934.208588,3.5242895,2,12,2,3,1,1,2.0,-0.3326424,2871976.0,2875501.0,2874163.0,0.0,2874163.0,2873602.0,2872492.0,2872492.0,2872492.0,2872885.0,2874493.0,2875501.0,3525.0,516.0,393.0,1008.0,0.0,-330.0,0.0,0.0,0.0,0.0,0.0,0.0,1.0,-0.0034615321393236813,9.92767417557806,0.3773070031861947,-0.31846095681770786,2873577.0,2873632.0,55.0,382.5510729448881,9.955478366169414,11.331269810119887,0.06994496655738222,692.0,0.07613929136822094,0.0,0.0,0.0,0.0,0.0,0.0,0.0,0.0,0.0,0.0,0.0,0.0,0.0
92,2937.74132,3.5243844,2,13,1,7,1,5,1.0,-0.0497619,2875509.0,2879034.0,2877978.0,2877978.0,0.0,2877442.0,2876025.0,2876025.0,2876025.0,2877218.0,2878026.0,2879034.0,3525.0,516.0,1193.0,1008.0,0.0,-48.0,0.0,0.0,0.0,1.0,0.0,0.0,0.0,0.22499958905598813,-9.297675326221295,0.08999983562239604,-0.588460463684892,2877405.0,2877496.0,91.0,503.911912871876,9.5468133908539,11.302811514349182,3.0704660206289334,187.0,3.0514318513584233,0.0,0.0,0.0,0.0,0.0,0.0,0.0,0.0,0.0,0.0,0.0,0.0,0.0
93,2941.274094,3.5244729,2,14,1,1,1,3,2.0,-0.2746093,2879041.0,2882568.0,2881285.0,0.0,2881285.0,2880708.0,2879558.0,2879558.0,2879558.0,2880351.0,2881559.0,2882568.0,3527.0,517.0,793.0,1009.0,0.0,-274.0,0.0,0.0,0.0,1.0,0.0,0.0,0.0,0.18346120338411182,-10.973056881653575,0.34961474607161314,-0.38423006746484206,2880688.0,2880757.0,69.0,533.6800017168904,11.180627173469624,12.007476724901233,3.0759100467627025,337.0,3.066280034300902,0.0,0.0,0.0,0.0,0.0,0.0,0.0,0.0,0.0,0.0,0.0,0.0,0.0
94,2944.806992,3.5244306,2,15,1,5,1,1,2.0,-0.2656063,2882574.0,2886100.0,2884828.0,0.0,2884828.0,2884217.0,2883091.0,2883091.0,2883091.0,2883484.0,2885092.0,2886100.0,3526.0,517.0,393.0,1008.0,0.0,-264.0,0.0,0.0,0.0,0.0,0.0,0.0,1.0,-0.16615354268749735,-10.422673271501235,-0.1384612855729158,-0.1488458819908829,2884203.0,2884263.0,60.0,536.9334265865905,10.256524985948614,11.432078703731921,3.1405801665918625,719.0,3.110400108190889,0.0,0.0,0.0,0.0,0.0,0.0,0.0,0.0,0.0,0.0,0.0,0.0,0.0
95,2948.339812,3.5245561,2,16,2,2,1,3,2.0,-0.1664793,2886107.0,2889633.0,2888460.0,0.0,2888460.0,2887883.0,2886623.0,2886624.0,2886624.0,2887417.0,2888624.0,2889633.0,3526.0,517.0,793.0,1009.0,1.0,-164.0,0.0,0.0,0.0,0.0,0.0,0.0,1.0,0.11423056059765394,9.83075127567702,0.2699995068671842,0.23538418547395523,2887863.0,2887928.0,65.0,413.9462755597146,9.71658237381033,10.51990598478743,0.003562507194551419,446.0,0.04509457289364981,0.0,0.0,0.0,0.0,0.0,0.0,0.0,0.0,0.0,0.0,0.0,0.0,0.0
96,2951.872704,3.5243708,2,17,2,3,1,3,2.0,-0.274848,2889640.0,2893166.0,2891883.0,0.0,2891883.0,2891383.0,2890156.0,2890156.0,2890156.0,2890950.0,2892158.0,2893166.0,3526.0,516.0,794.0,1008.0,0.0,-275.0,0.0,0.0,0.0,0.0,0.0,0.0,1.0,0.14192281771223947,9.823828211398373,0.4049992603007802,-0.578075867266925,2891364.0,2891437.0,73.0,366.3677432649831,9.731686840354602,10.70539074389994,0.10119055971849673,414.0,0.11569199384299035,0.0,0.0,0.0,0.0,0.0,0.0,0.0,0.0,0.0,0.0,0.0,0.0,0.0
97,2955.405501,3.5243963,2,18,2,10,1,2,1.0,-0.3664707,2893173.0,2896699.0,2895325.0,2895325.0,0.0,2894906.0,2893689.0,2893689.0,2893689.0,2894282.0,2895690.0,2896699.0,3526.0,516.0,593.0,1009.0,0.0,-365.0,0.0,0.0,0.0,0.0,0.0,0.0,1.0,-0.048461449950519736,10.49190391428769,0.05884604636849078,-0.16615354268749735,2894885.0,2894953.0,68.0,428.1010212407322,10.54276656417602,11.9135376183712,0.02134322818067345,603.0,0.03138503980380744,0.0,0.0,0.0,0.0,0.0,0.0,0.0,0.0,0.0,0.0,0.0,0.0,0.0
98,2958.93836,3.5243867,2,19,2,2,2,4,2.0,-0.2081841,2896705.0,2900231.0,2899016.0,0.0,2899016.0,2898588.0,2897222.0,2897222.0,2897222.0,2898215.0,2899223.0,2900231.0,3526.0,517.0,993.0,1008.0,0.0,-207.0,0.0,0.0,0.0,1.0,0.0,0.0,0.0,0.2699995068671842,11.17728727787363,0.5053836923411433,1.5576894626953024,2898571.0,2898640.0,69.0,404.4062894862948,10.957932010825191,11.875768143435618,-0.096179636661965,356.0,-0.11274947034999865,0.0,0.0,0.0,0.0,0.0,0.0,0.0,0.0,0.0,0.0,0.0,0.0,0.0
99,2962.471219,3.5244034,2,20,2,3,1,4,2.0,-0.1579599,2900238.0,2903764.0,2902600.0,0.0,2902600.0,2902038.0,2900755.0,2900755.0,2900755.0,2901748.0,2902756.0,2903764.0,3526.0,517.0,993.0,1008.0,0.0,-156.0,0.0,0.0,0.0,1.0,0.0,0.0,0.0,0.2388457176132789,9.893058854184831,0.578075867266925,-0.7269217492578078,2902020.0,2902083.0,63.0,447.37392158203215,9.742014682060686,11.027840554884932,0.13435950891273254,272.0,0.15219590027083754,1.0,-0.32192248895702763,-0.4049992603007802,0.6992294921432263,0.7753831992083275,2903449.0,2903473.0,24.0,34.98355441866939,0.11269932136734195,0.23233560296648512,-2.39964538558391,-1.1404697136723383
100,2966.004021,3.5244011,2,21,2,9,1,5,1.0,0.0334351,2903771.0,2907297.0,2906323.0,2906323.0,0.0,2905764.0,2904288.0,2904288.0,2904288.0,2905481.0,2906289.0,2907297.0,3526.0,517.0,1193.0,1008.0,0.0,34.0,0.0,0.0,0.0,1.0,0.0,0.0,0.0,0.21115346049869735,10.498826978566337,0.7373063456757749,-0.623075785078121,2905748.0,2905815.0,67.0,412.3200794558528,10.37722824052862,11.367891314864817,0.13147142867402384,267.0,0.15038055117907886,1.0,0.21115346049869735,10.498826978566337,0.7373063456757749,-0.623075785078121,2905748.0,2905815.0,67.0,412.3200794558528,10.37722824052862,11.367891314864817,0.13147142867402384,0.15038055117907886
101,2969.536886,3.5243888,2,22,2,4,1,4,2.0,-0.1081828,2907304.0,2910830.0,2909714.0,0.0,2909714.0,2909237.0,2907820.0,2907820.0,2907821.0,2908813.0,2909821.0,2910830.0,3526.0,517.0,992.0,1009.0,0.0,-107.0,0.0,0.0,0.0,0.0,0.0,0.0,1.0,-0.11769209273697762,11.817670723648364,0.3080763603997368,-0.5330759494557249,2909217.0,2909309.0,92.0,375.00330914758894,11.964966475804644,13.095115165821143,0.07035930470665024,404.0,0.08920003422321257,0.0,0.0,0.0,0.0,0.0,0.0,0.0,0.0,0.0,0.0,0.0,0.0,0.0
102,2973.069684,3.5243991,2,23,2,5,1,1,2.0,-0.2914369,2910837.0,2914362.0,2913065.0,0.0,2913065.0,2912636.0,2911353.0,2911353.0,2911353.0,2911746.0,2913355.0,2914362.0,3525.0,516.0,393.0,1007.0,0.0,-290.0,0.0,0.0,0.0,0.0,0.0,0.0,1.0,0.3426916817929658,8.903060662338486,0.33230708537499865,0.31499942467838415,2912617.0,2912684.0,67.0,389.99928769704815,8.560386477151878,9.726304760246936,0.002021833071970558,871.0,0.04485766862216451,0.0,0.0,0.0,0.0,0.0,0.0,0.0,0.0,0.0,0.0,0.0,0.0,0.0
103,2976.602535,3.5244271,2,24,1,10,1,5,1.0,-0.0331432,2914369.0,2917895.0,2916855.0,2916855.0,0.0,2916329.0,2914886.0,2914886.0,2914886.0,2916079.0,2916887.0,2917895.0,3526.0,517.0,1193.0,1008.0,0.0,-32.0,0.0,0.0,0.0,1.0,0.0,0.0,0.0,0.2423072497526026,-9.62652087945697,0.5296144173164012,-1.0869210917473882,2916307.0,2916383.0,76.0,491.0077559284704,10.000347778749608,10.871936256758959,2.979232337468568,228.0,2.9597457063453083,0.0,0.0,0.0,0.0,0.0,0.0,0.0,0.0,0.0,0.0,0.0,0.0,0.0
104,2980.13545,3.716101,2,25,2,10,1,5,1.0,0.0015644,2917903.0,2921621.0,2920613.0,2920613.0,0.0,2920029.0,2918612.0,2918612.0,2918612.0,2919802.0,2920611.0,2921621.0,3718.0,709.0,1190.0,1010.0,0.0,2.0,0.0,0.0,0.0,1.0,0.0,0.0,0.0,0.2526918461705697,12.125747084048097,0.46730683880859075,-0.6611526386106736,2920008.0,2920080.0,72.0,421.82942935268954,11.926561175538753,13.350531734634776,0.09475908643924719,206.0,0.10885335770453,0.0,0.0,0.0,0.0,0.0,0.0,0.0,0.0,0.0,0.0,0.0,0.0,0.0
105,2983.868331,3.524260122,2,26,2,4,1,5,2.0,0.3668739,2921637.0,2925161.0,2924521.0,0.0,2924521.0,2923586.0,2922153.0,2922153.0,2922153.0,2923343.0,2924152.0,2925161.0,3524.0,516.0,1190.0,1009.0,0.0,369.0,0.0,0.0,0.0,1.0,0.0,0.0,0.0,0.11769209273697762,9.695751522243423,0.32192248895702763,-0.6334603814960881,2923558.0,2923629.0,71.0,463.630705178833,9.625589793062685,11.247778768200204,0.09941816942189949,215.0,0.11473550198902244,1.0,0.11769209273697762,9.695751522243423,0.32192248895702763,-0.6334603814960881,2923558.0,2923629.0,71.0,463.630705178833,9.625589793062685,11.247778768200204,0.09941816942189949,0.11473550198902244
106,2987.401091,3.5243252,2,27,2,1,1,4,2.0,0.2000679,2925168.0,2928693.0,2927886.0,0.0,2927886.0,2927078.0,2925684.0,2925684.0,2925685.0,2926678.0,2927685.0,2928694.0,3525.0,517.0,993.0,1009.0,0.0,201.0,0.0,0.0,0.0,1.0,0.0,0.0,0.0,0.29076869970312236,10.568057621352795,0.5088452244804671,-0.03461532139322895,2927061.0,2927132.0,71.0,408.4530511814026,10.291647921687977,11.077608651384548,0.05283055135274221,383.0,0.07161915077381706,1.0,13.198822047238195,15.4072795521262,-1.0730749631900973,-1.394997452147125,2927752.0,2927797.0,45.0,242.50565717051535,2.2317971771181266,2.7555622205036427,0.14474854939809836,0.17423558136752215
107,2990.933865,3.5243889,2,28,1,9,2,3,1.0,0.0595652,2928701.0,2932226.0,2931277.0,2931277.0,0.0,2931284.0,2929217.0,2929217.0,2929217.0,2930010.0,2931217.0,2932227.0,3525.0,516.0,793.0,1010.0,0.0,60.0,0.0,1.0,0.0,0.0,0.0,0.0,0.0,0.0,0.0,0.0,0.0,0.0,0.0,0.0,0.0,0.0,0.0,0.0,0.0,0.0,0.0,0.0,0.0,0.0,0.0,0.0,0.0,0.0,0.0,0.0,0.0,0.0,0.0
108,2994.466714,3.5243957,2,29,2,10,2,5,1.0,0.0500737,2932234.0,2935759.0,2934802.0,2934802.0,0.0,2934210.0,2932750.0,2932750.0,2932750.0,2933943.0,2934751.0,2935759.0,3525.0,516.0,1193.0,1008.0,0.0,51.0,0.0,0.0,0.0,1.0,0.0,0.0,0.0,0.6369219136354117,10.5230577035416,0.1349997534335921,1.2426900380169184,2934186.0,2934281.0,95.0,414.904815340328,9.947997719291271,11.24464210176554,-0.1115794465503175,243.0,-0.11228898475145724,1.0,12.4580541694231,-33.26532385889301,1.145767138115879,18.726888873736858,2934817.0,2934857.0,40.0,20079.694595144792,48.98696908161419,61.46209849687924,-2.774510138412499,-2.676156768531369
109,2997.999476,3.5244821,2,30,1,2,2,1,2.0,-0.1581656,2935766.0,2939293.0,2938127.0,0.0,2938127.0,2937449.0,2936283.0,2936283.0,2936283.0,2936675.0,2938284.0,2939293.0,3527.0,517.0,392.0,1009.0,0.0,-157.0,0.0,0.0,0.0,0.0,0.0,0.0,1.0,0.1107690284583342,-10.453827060755142,0.5711528029882775,0.9449982740351486,2937432.0,2937512.0,80.0,563.3075615887998,10.571208585797885,12.038164204489842,-3.1062207813270057,757.0,-3.084339624265171,0.0,0.0,0.0,0.0,0.0,0.0,0.0,0.0,0.0,0.0,0.0,0.0,0.0
110,3001.532496,3.524302973,2,31,1,8,2,3,1.0,-0.2332028,2939299.0,2942825.0,2941585.0,2941585.0,0.0,2941075.0,2939816.0,2939816.0,2939816.0,2940609.0,2941817.0,2942825.0,3526.0,517.0,793.0,1008.0,0.0,-232.0,0.0,0.0,0.0,0.0,0.0,0.0,1.0,0.41538385671874734,-11.20497953498821,0.6646141707499973,0.8030754563229131,2941048.0,2941137.0,89.0,526.8321645799829,11.62118827327592,12.87747274546973,-3.1296778167897914,439.0,3.09426526554275,0.0,0.0,0.0,0.0,0.0,0.0,0.0,0.0,0.0,0.0,0.0,0.0,0.0
111,3005.065179,3.5244832,2,32,2,7,1,1,1.0,-0.1582104,2942832.0,2946358.0,2945193.0,2945193.0,0.0,2944625.0,2943348.0,2943348.0,2943349.0,2943742.0,2945350.0,2946359.0,3526.0,517.0,393.0,1009.0,0.0,-157.0,0.0,0.0,0.0,0.0,0.0,0.0,1.0,-0.17999967124479208,10.450365528615821,0.3946146638828092,-0.12461515701562499,2944596.0,2944676.0,80.0,439.0562329830022,10.643038282808055,12.140068954207605,0.048805237227080515,854.0,0.07220131929583741,0.0,0.0,0.0,0.0,0.0,0.0,0.0,0.0,0.0,0.0,0.0,0.0,0.0
112,3008.598191,3.524269476,2,33,2,3,1,1,2.0,-0.6164596,2946365.0,2949890.0,2948267.0,0.0,2948267.0,2947725.0,2946881.0,2946881.0,2946881.0,2947274.0,2948883.0,2949891.0,3525.0,516.0,393.0,1008.0,0.0,-616.0,0.0,0.0,0.0,0.0,0.0,0.0,1.0,0.3461532139322894,8.297292537956979,0.1626920105481776,0.9657674668710867,2947708.0,2947766.0,58.0,330.7655519507959,7.991592253024428,9.097952237843428,-0.10065994602043725,434.0,-0.09679139837305899,0.0,0.0,0.0,0.0,0.0,0.0,0.0,0.0,0.0,0.0,0.0,0.0,0.0
113,3012.130933,3.5244086,2,34,2,6,2,4,1.0,-0.3581584,2949898.0,2953423.0,2952059.0,2952059.0,0.0,2951607.0,2950414.0,2950414.0,2950414.0,2951407.0,2952415.0,2953423.0,3525.0,516.0,993.0,1008.0,0.0,-356.0,0.0,0.0,0.0,1.0,0.0,0.0,0.0,0.20423039622005,10.401904078665298,0.7165371528398408,1.142305605976555,2951589.0,2951653.0,64.0,434.2663409784895,10.206558053982883,11.469745870646184,-0.04172729255511822,182.0,-0.045889211526214405,1.0,0.20423039622005,10.401904078665298,0.7165371528398408,1.142305605976555,2951589.0,2951653.0,64.0,434.2663409784895,10.206558053982883,11.469745870646184,-0.04172729255511822,-0.045889211526214405
114,3015.663734,3.5244322,2,35,2,9,2,5,1.0,-0.0498771,2953430.0,2956956.0,2955899.0,2955899.0,0.0,2955307.0,2953947.0,2953947.0,2953947.0,2955140.0,2955948.0,2956957.0,3526.0,517.0,1193.0,1009.0,0.0,-49.0,0.0,0.0,0.0,1.0,0.0,0.0,0.0,0.07269217492578157,9.775366761447858,0.46384530666926704,1.4573050306549393,2955283.0,2955350.0,67.0,405.90595245856514,9.753402296384735,11.099207272061081,-0.102034717927897,143.0,-0.09495170634275645,0.0,0.0,0.0,0.0,0.0,0.0,0.0,0.0,0.0,0.0,0.0,0.0,0.0
115,3019.196706,3.5243066,2,36,1,1,1,3,2.0,-0.1081622,2956963.0,2960489.0,2959374.0,0.0,2959374.0,2958823.0,2957480.0,2957480.0,2957480.0,2958273.0,2959481.0,2960489.0,3526.0,517.0,793.0,1008.0,0.0,-107.0,0.0,0.0,0.0,0.0,0.0,0.0,1.0,0.3426916817929658,-10.907287771006441,0.4361530495546855,-0.2596149104492171,2958800.0,2958878.0,78.0,554.8205436164922,11.27147420449414,12.197073822260233,3.0798251720203424,527.0,3.0677374751320587,0.0,0.0,0.0,0.0,0.0,0.0,0.0,0.0,0.0,0.0,0.0,0.0,0.0
116,3022.729402,3.5244353,2,37,2,10,2,3,1.0,-0.1165388,2960496.0,2964022.0,2962898.0,2962898.0,0.0,2962322.0,2961013.0,2961013.0,2961013.0,2961806.0,2963014.0,2964022.0,3526.0,517.0,793.0,1008.0,0.0,-116.0,0.0,0.0,0.0,0.0,0.0,0.0,1.0,0.28038410328515523,9.879212725627545,0.588460463684892,1.1284594774192644,2962292.0,2962370.0,78.0,402.92954421746435,9.614005921359398,10.959035816405594,-0.056197526501944345,486.0,-0.061315449132279716,0.0,0.0,0.0,0.0,0.0,0.0,0.0,0.0,0.0,0.0,0.0,0.0,0.0
117,3026.262267,3.5245586,2,38,2,1,2,1,2.0,-0.3331738,2964029.0,2967555.0,2966215.0,0.0,2966215.0,2965729.0,2964545.0,2964545.0,2964546.0,2964939.0,2966546.0,2967555.0,3526.0,517.0,393.0,1009.0,0.0,-331.0,0.0,0.0,0.0,0.0,0.0,0.0,1.0,-0.21115346049869735,9.796135954283791,0.6611526386106736,0.9865366597070249,2965710.0,2965780.0,70.0,387.73495218350473,10.012577899442404,11.34433284038325,-0.03250324981524731,771.0,-0.05097931663440879,0.0,0.0,0.0,0.0,0.0,0.0,0.0,0.0,0.0,0.0,0.0,0.0,0.0
118,3029.795205,3.524327,2,39,2,8,2,4,1.0,-0.3248448,2967562.0,2971088.0,2969755.0,2969755.0,0.0,2969338.0,2968078.0,2968078.0,2968078.0,2969071.0,2970080.0,2971088.0,3526.0,516.0,993.0,1008.0,0.0,-325.0,0.0,0.0,0.0,1.0,0.0,0.0,0.0,0.36692240676822757,8.899599130199158,0.872306099109371,1.3707667271718669,2969313.0,2969380.0,67.0,440.8001402080834,8.547223822055233,9.80102796930143,-0.058351532504926175,242.0,-0.061846009283118654,1.0,13.174591322262932,12.762668997683512,0.747690942093746,0.9034598883632762,2969735.0,2969758.0,23.0,92.08550230562189,0.4403906971188567,0.6644428749496958,-2.7800621007221205,2.818194654225588
119,3033.327944,3.5244494,2,40,2,9,1,1,1.0,-0.6164687,2971094.0,2974620.0,2972997.0,2972997.0,0.0,2972437.0,2971611.0,2971611.0,2971611.0,2972004.0,2973612.0,2974620.0,3526.0,517.0,393.0,1008.0,0.0,-615.0,0.0,0.0,0.0,0.0,0.0,0.0,1.0,0.22499958905598813,9.314982986917906,0.7234602171184842,0.2388457176132789,2972421.0,2972494.0,73.0,370.49400502678094,9.102892363778446,10.054273200276322,0.05326259942056295,417.0,0.0768511075564808,0.0,0.0,0.0,0.0,0.0,0.0,0.0,0.0,0.0,0.0,0.0,0.0,0.0
120,3036.860877,3.5243505,2,41,1,6,2,1,1.0,-0.424981,2974628.0,2978153.0,2976721.0,2976721.0,0.0,2976237.0,2975144.0,2975144.0,2975144.0,2975537.0,2977146.0,2978154.0,3525.0,516.0,393.0,1008.0,0.0,-425.0,0.0,0.0,0.0,0.0,0.0,0.0,1.0,0.31499942467838415,-9.553828704531188,0.8065369884622328,0.4396145816940092,2976211.0,2976283.0,72.0,567.6924434534818,9.87564684952164,10.99192947955863,3.1044298343970342,674.0,3.0829847708093774,0.0,0.0,0.0,0.0,0.0,0.0,0.0,0.0,0.0,0.0,0.0,0.0,0.0
121,3040.393715,3.5243632,2,42,2,6,2,1,1.0,-0.5331378,2978160.0,2981686.0,2980146.0,2980146.0,0.0,2979586.0,2978677.0,2978677.0,2978677.0,2979070.0,2980678.0,2981686.0,3526.0,517.0,393.0,1008.0,0.0,-532.0,0.0,0.0,0.0,0.0,0.0,0.0,1.0,0.03461532139322895,10.547288428516861,0.5330759494557249,0.4223069209973947,2979563.0,2979642.0,79.0,432.86109925865816,10.513256661706022,11.741909391839481,0.010536323951464059,493.0,0.04925175488677367,0.0,0.0,0.0,0.0,0.0,0.0,0.0,0.0,0.0,0.0,0.0,0.0,0.0
122,3043.926489,3.5244378,2,43,1,6,2,3,1.0,-0.2498315,2981693.0,2985219.0,2983962.0,2983962.0,0.0,2983393.0,2982209.0,2982209.0,2982210.0,2983003.0,2984211.0,2985219.0,3526.0,517.0,793.0,1008.0,0.0,-249.0,0.0,0.0,0.0,1.0,0.0,0.0,0.0,-0.04153838567187631,-10.675365117671806,0.6161527207994736,0.4292299852760381,2983367.0,2983430.0,63.0,538.2880345515533,10.63546948071649,11.757457104044775,3.1240163387452977,364.0,3.10242589337939,1.0,-10.675365117671806,-10.533442299959566,0.4396145816940092,0.3011532961210934,2983433.0,2983455.0,22.0,34.24798840180043,0.198276609285831,0.31955022906084957,0.7730531115532211,0.6933513145340475
123,3047.459431,3.5243658,2,44,1,7,2,5,1.0,0.0337453,2985226.0,2988752.0,2987779.0,2987779.0,0.0,2987125.0,2985742.0,2985742.0,2985743.0,2986935.0,2987743.0,2988752.0,3526.0,517.0,1192.0,1009.0,0.0,36.0,0.0,0.0,0.0,1.0,0.0,0.0,0.0,-0.19730733194140657,-11.364210013397061,0.4396145816940092,0.6473065100533828,2987109.0,2987186.0,77.0,613.5817284513029,11.168833933504747,12.657252136858002,-3.1229959136437953,174.0,3.097547792955686,0.0,0.0,0.0,0.0,0.0,0.0,0.0,0.0,0.0,0.0,0.0,0.0,0.0
124,3050.992216,3.52441,2,45,1,2,2,5,2.0,0.1584249,2988759.0,2992284.0,2991436.0,0.0,2991436.0,2990684.0,2989275.0,2989275.0,2989275.0,2990469.0,2991276.0,2992285.0,3525.0,516.0,1194.0,1009.0,0.0,160.0,0.0,0.0,0.0,1.0,0.0,0.0,0.0,0.0553845142291671,-10.100750782544205,0.5330759494557249,0.8515369062734328,2990655.0,2990727.0,72.0,572.7894411158418,10.161126982150316,11.337242805172124,-3.11024641454171,186.0,3.090887147342995,1.0,-11.51651742752727,-33.26532385889301,0.9242290811992143,18.726888873736858,2991204.0,2991240.0,36.0,11493.485201353578,28.10596514759549,35.6970516552961,-2.455637839394425,-2.248126916730803
125,3054.525122,3.5243544,2,46,1,10,1,3,1.0,-0.1748242,2992292.0,2995817.0,2994636.0,2994636.0,0.0,2994101.0,2992808.0,2992808.0,2992808.0,2993601.0,2994809.0,2995818.0,3525.0,516.0,793.0,1009.0,0.0,-173.0,0.0,0.0,0.0,0.0,0.0,0.0,1.0,-0.06576911064713421,-10.543826896377537,0.5365374815950487,-0.09346136776171972,2994074.0,2994143.0,69.0,514.0877014488304,10.496980209150456,11.458460917933081,3.081539412884364,473.0,3.06690602343101,0.0,0.0,0.0,0.0,0.0,0.0,0.0,0.0,0.0,0.0,0.0,0.0,0.0
126,3058.057935,3.5244343,2,47,2,9,2,2,1.0,-0.2831751,2995824.0,2999351.0,2998060.0,2998060.0,0.0,2997507.0,2996341.0,2996341.0,2996341.0,2996933.0,2998342.0,2999351.0,3527.0,517.0,592.0,1009.0,0.0,-282.0,0.0,0.0,0.0,0.0,0.0,0.0,1.0,-0.1626920105481776,9.699213054382751,0.46730683880859075,0.7788447313476512,2997484.0,2997541.0,57.0,408.4420501929686,9.866824583836383,11.401083568980386,-0.0315795296630106,551.0,-0.053157535744279616,0.0,0.0,0.0,0.0,0.0,0.0,0.0,0.0,0.0,0.0,0.0,0.0,0.0
127,3061.590713,3.5244714,2,48,1,10,1,2,1.0,-0.0915394,2999357.0,3002883.0,3001784.0,3001784.0,0.0,3001233.0,2999874.0,2999874.0,2999874.0,3000467.0,3001875.0,3002883.0,3526.0,517.0,593.0,1008.0,0.0,-91.0,0.0,0.0,0.0,0.0,0.0,0.0,1.0,0.2769225711458316,-10.166519893191342,0.5538451422916632,-0.8065369884622328,3001207.0,3001289.0,82.0,488.3109037808335,10.531672708909795,11.490377488135604,3.012060160360257,740.0,3.0016553783443847,0.0,0.0,0.0,0.0,0.0,0.0,0.0,0.0,0.0,0.0,0.0,0.0,0.0
128,3065.123699,3.5243445,2,49,2,5,1,5,2.0,-0.0333241,3002890.0,3006415.0,3005375.0,0.0,3005375.0,3004873.0,3003406.0,3003406.0,3003407.0,3004599.0,3005408.0,3006416.0,3525.0,517.0,1192.0,1008.0,0.0,-33.0,0.0,0.0,0.0,1.0,0.0,0.0,0.0,0.22153805691666445,9.906904982742125,0.6299988493567683,-0.7096140885611933,3004841.0,3004923.0,82.0,433.732570819603,9.77757103330428,11.149171052925231,0.137441068475718,242.0,0.15146908156343541,0.0,0.0,0.0,0.0,0.0,0.0,0.0,0.0,0.0,0.0,0.0,0.0,0.0
129,3068.656494,3.5243953,2,50,2,2,1,2,2.0,-0.0665471,3006423.0,3009948.0,3008875.0,0.0,3008875.0,3008222.0,3006939.0,3006939.0,3006939.0,3007533.0,3008940.0,3009948.0,3525.0,516.0,594.0,1008.0,0.0,-65.0,0.0,0.0,0.0,0.0,0.0,0.0,1.0,0.23538418547395523,10.228827471699153,0.5019221602018197,0.22499958905598813,3008206.0,3008274.0,68.0,455.79176673844853,9.997279371179417,11.305972845370166,0.02770333666659113,673.0,0.04410255170347408,0.0,0.0,0.0,0.0,0.0,0.0,0.0,0.0,0.0,0.0,0.0,0.0,0.0
130,3072.189435,3.5242959,2,51,1,3,1,3,2.0,-0.0915233,3009956.0,3013481.0,3012383.0,0.0,3012383.0,3011648.0,3010472.0,3010472.0,3010472.0,3011265.0,3012473.0,3013482.0,3525.0,516.0,793.0,1009.0,0.0,-90.0,0.0,0.0,0.0,1.0,0.0,0.0,0.0,0.02769225711458158,-12.087670230515549,0.7546140063723894,-0.4707683709479144,3011621.0,3011716.0,95.0,485.3419741326094,12.177174145807495,13.08698366286491,3.040792587879984,356.0,3.0249474800319844,1.0,0.02769225711458158,-12.087670230515549,0.7546140063723894,-0.4707683709479144,3011621.0,3011716.0,95.0,485.3419741326094,12.177174145807495,13.08698366286491,3.040792587879984,3.0249474800319844
131,3075.730428,3.5244955,2,52,1,9,2,5,1.0,-0.1662484,3013497.0,3017023.0,3015849.0,3015849.0,0.0,3015607.0,3014013.0,3014013.0,3014013.0,3015207.0,3016015.0,3017023.0,3526.0,516.0,1194.0,1008.0,0.0,-166.0,0.0,0.0,0.0,1.0,0.0,0.0,0.0,0.09346136776171972,-10.53690383209889,0.8549984384127565,1.325766809360669,3015583.0,3015657.0,74.0,492.69174560653624,10.640784141288295,11.397578568423484,-3.097336320963398,376.0,-3.0780750470293228,1.0,-0.006923064278647363,1.6269201054817604,1.0107673846822847,1.7515352624973854,3016568.0,3016625.0,57.0,115.77892177245772,1.7939288035413847,2.2276485619720274,-0.4256693330879337,-0.3989746955790557
132,3079.263357,3.5245774,2,53,1,1,2,4,2.0,-0.249861,3017030.0,3020556.0,3019298.0,0.0,3019298.0,3018773.0,3017546.0,3017546.0,3017546.0,3018539.0,3019547.0,3020556.0,3526.0,516.0,993.0,1009.0,0.0,-249.0,0.0,0.0,0.0,1.0,0.0,0.0,0.0,0.19730733194140657,-9.979597157667904,0.882690695527338,1.0246135132395775,3018748.0,3018818.0,70.0,556.7584483077154,10.177894039378554,11.364629649204426,-3.1276479792944354,209.0,3.1056435028664118,1.0,-10.481519317869722,-33.26532385889301,0.8307677134374947,18.726888873736858,3019164.0,3019213.0,49.0,10434.626978464905,28.971933003299384,46.829886351962834,-2.4757710493814424,-2.4951496376383884
133,3082.796226,3.5243921,2,54,2,8,1,1,1.0,-0.4915087,3020562.0,3024089.0,3022590.0,3022590.0,0.0,3022079.0,3021079.0,3021079.0,3021079.0,3021472.0,3023080.0,3024089.0,3527.0,517.0,393.0,1009.0,0.0,-490.0,0.0,0.0,0.0,0.0,0.0,0.0,1.0,-0.0034615321393236813,10.39151948224733,0.49153756378385255,0.7961523920442657,3022059.0,3022130.0,71.0,478.8206030566727,10.399443277553617,12.025856861754841,-0.02929564557794062,587.0,0.03512379786063454,0.0,0.0,0.0,0.0,0.0,0.0,0.0,0.0,0.0,0.0,0.0,0.0,0.0
134,3086.329099,3.5243748,2,55,1,6,2,2,1.0,-0.1582078,3024095.0,3027621.0,3026456.0,3026456.0,0.0,3025938.0,3024612.0,3024612.0,3024612.0,3025205.0,3026613.0,3027621.0,3526.0,517.0,593.0,1008.0,0.0,-157.0,0.0,0.0,0.0,0.0,0.0,0.0,1.0,0.23538418547395523,-10.450365528615817,0.6957679600039025,1.0107673846822847,3025919.0,3025979.0,60.0,499.6254641512796,10.690391554555772,11.927903835425957,-3.1121227298158196,714.0,3.1009528287097896,0.0,0.0,0.0,0.0,0.0,0.0,0.0,0.0,0.0,0.0,0.0,0.0,0.0
135,3089.861868,3.5244567,2,56,2,1,2,2,2.0,-0.1832184,3027628.0,3031154.0,3029964.0,0.0,3029964.0,3029405.0,3028145.0,3028145.0,3028145.0,3028738.0,3030146.0,3031154.0,3526.0,517.0,593.0,1008.0,0.0,-182.0,0.0,0.0,0.0,0.0,0.0,0.0,1.0,0.0,10.658057456975195,0.713075620700517,1.007305852542963,3029386.0,3029426.0,40.0,396.7227270071352,10.662117997167103,10.59050765691613,-0.027599355865980967,648.0,-0.047738571078348814,0.0,0.0,0.0,0.0,0.0,0.0,0.0,0.0,0.0,0.0,0.0,0.0,0.0
136,3093.394805,3.5243733,2,57,1,4,2,3,2.0,-0.266498,3031161.0,3034687.0,3033413.0,0.0,3033413.0,3032871.0,3031677.0,3031677.0,3031678.0,3032471.0,3033679.0,3034687.0,3526.0,517.0,793.0,1008.0,0.0,-266.0,0.0,0.0,0.0,1.0,0.0,0.0,0.0,-0.05192298208984342,-10.464211657173108,0.7961523920442657,0.7857677956262986,3032847.0,3032908.0,61.0,597.1769996562695,10.412293853570883,11.339220600015336,3.1405953134949423,376.0,3.1086174391638783,1.0,-0.05192298208984342,-10.464211657173108,0.7961523920442657,0.7857677956262986,3032847.0,3032908.0,61.0,597.1769996562695,10.412293853570883,11.339220600015336,3.1405953134949423,3.1086174391638783
137,3096.927634,3.5243963,2,58,1,3,1,3,2.0,-0.1166643,3034694.0,3038220.0,3037096.0,0.0,3037096.0,3036620.0,3035210.0,3035210.0,3035210.0,3036003.0,3037211.0,3038220.0,3526.0,516.0,793.0,1009.0,0.0,-115.0,0.0,0.0,0.0,0.0,0.0,0.0,1.0,-0.12807668915494866,-10.516134639262951,0.32192248895702763,-0.15230741413020657,3036598.0,3036674.0,76.0,583.8462276601163,10.39887695743075,11.421107470551812,3.0959728778512727,595.0,3.0791171263858956,0.0,0.0,0.0,0.0,0.0,0.0,0.0,0.0,0.0,0.0,0.0,0.0,0.0
138,3100.460459,3.5244289,2,59,2,2,2,3,2.0,-0.3080797,3038226.0,3041753.0,3040438.0,0.0,3040438.0,3039943.0,3038743.0,3038743.0,3038743.0,3039536.0,3040744.0,3041753.0,3527.0,517.0,793.0,1009.0,0.0,-306.0,0.0,0.0,0.0,1.0,0.0,0.0,0.0,0.08307677134374868,10.79651874254811,0.5192298208984342,1.0696134310507737,3039918.0,3040000.0,82.0,449.1481530547099,10.727570134410099,11.926015629685724,-0.05132805921712114,382.0,-0.06942562983728981,1.0,0.08307677134374868,10.79651874254811,0.5192298208984342,1.0696134310507737,3039918.0,3040000.0,82.0,449.1481530547099,10.727570134410099,11.926015629685724,-0.05132805921712114,-0.06942562983728981
139,3103.993308,3.524676234,2,60,2,7,2,1,1.0,-0.274817,3041759.0,3045286.0,3044003.0,3044003.0,0.0,3043409.0,3042276.0,3042276.0,3042276.0,3042669.0,3044277.0,3045286.0,3527.0,517.0,393.0,1009.0,0.0,-274.0,0.0,0.0,0.0,0.0,0.0,0.0,1.0,-0.0692306427864579,10.474596253591075,0.5226913530377578,1.0557673024934828,3043393.0,3043472.0,79.0,355.4069113253936,10.557293951987054,11.41679946266375,-0.05051509737055931,724.0,-0.05612078270117645,0.0,0.0,0.0,0.0,0.0,0.0,0.0,0.0,0.0,0.0,0.0,0.0,0.0
140,3107.526266,3.5243278,2,61,1,4,2,3,1.0,-0.0247055,3045292.0,3048818.0,3047787.0,3047787.0,0.0,3047168.0,3045809.0,3045809.0,3045809.0,3046602.0,3047810.0,3048818.0,3526.0,517.0,793.0,1008.0,0.0,-23.0,0.0,0.0,0.0,0.0,0.0,0.0,1.0,-0.05192298208984342,-11.249979452799407,0.5919219958242157,0.5053836923411433,3047150.0,3047214.0,64.0,579.8298819669403,11.198390848651874,12.414875621374248,3.1338648321561555,548.0,3.0972455274528525,0.0,0.0,0.0,0.0,0.0,0.0,0.0,0.0,0.0,0.0,0.0,0.0,0.0
141,3111.058946,3.5245089,2,62,1,4,2,1,2.0,-0.4665338,3048825.0,3052351.0,3050877.0,0.0,3050877.0,3050358.0,3049341.0,3049341.0,3049342.0,3049734.0,3051343.0,3052351.0,3526.0,517.0,392.0,1008.0,0.0,-466.0,0.0,0.0,0.0,0.0,0.0,0.0,1.0,0.4430761138333289,-9.716520715079366,0.6611526386106736,0.7753831992083275,3050335.0,3050408.0,73.0,474.90810863629673,10.160238990645219,10.753180365512394,-3.130349515770831,601.0,3.0942545357618974,0.0,0.0,0.0,0.0,0.0,0.0,0.0,0.0,0.0,0.0,0.0,0.0,0.0
142,3114.591996,3.5243268,2,63,2,5,2,4,2.0,-0.3248031,3052358.0,3055884.0,3054552.0,0.0,3054552.0,3054084.0,3052874.0,3052874.0,3052874.0,3053868.0,3054876.0,3055884.0,3526.0,516.0,994.0,1008.0,0.0,-324.0,0.0,0.0,0.0,1.0,0.0,0.0,0.0,-0.10038443204036315,10.23921206811712,0.5226913530377578,1.1976901202057222,3054062.0,3054133.0,71.0,363.64626656884906,10.36160601073729,11.182787498727034,-0.06519038686984385,194.0,-0.09175284419625522,0.0,0.0,0.0,0.0,0.0,0.0,0.0,0.0,0.0,0.0,0.0,0.0,0.0
143,3118.124807,3.5243419,2,64,1,2,1,3,2.0,-0.3831522,3055891.0,3059416.0,3058026.0,0.0,3058026.0,3057574.0,3056407.0,3056407.0,3056407.0,3057201.0,3058409.0,3059417.0,3525.0,516.0,794.0,1008.0,0.0,-383.0,0.0,0.0,0.0,1.0,0.0,0.0,0.0,0.2769225711458316,-12.485746426537682,0.9830751275677012,-0.20769192835937367,3057557.0,3057629.0,72.0,507.4297313208455,12.818098381815966,13.647536368453522,3.0485611906783014,356.0,3.0320558173596868,1.0,-12.468438765841068,-12.381900462357995,-0.20423039622005,-0.3426916817929658,3057632.0,3057657.0,25.0,36.674275498818126,0.16328014445189856,0.23315930810896904,1.0121970114513341,0.7118468729089166
144,3121.657603,3.5244159,2,65,1,2,1,2,2.0,-0.3081079,3059424.0,3062950.0,3061634.0,0.0,3061634.0,3061083.0,3059940.0,3059940.0,3059940.0,3060533.0,3061941.0,3062950.0,3526.0,516.0,593.0,1009.0,0.0,-307.0,0.0,0.0,0.0,0.0,0.0,0.0,1.0,0.09692289990103947,-10.131904571798113,0.4257684531367144,-0.48115296736588153,3061060.0,3061139.0,79.0,530.250346578546,10.268954080565058,11.46869121852235,3.0531606138949603,527.0,3.039701582317128,0.0,0.0,0.0,0.0,0.0,0.0,0.0,0.0,0.0,0.0,0.0,0.0,0.0
145,3125.190367,3.5244822,2,66,1,3,2,5,2.0,-0.091483,3062956.0,3066482.0,3065383.0,0.0,3065383.0,3064889.0,3063473.0,3063473.0,3063473.0,3064666.0,3065474.0,3066482.0,3526.0,517.0,1193.0,1008.0,0.0,-91.0,0.0,0.0,0.0,1.0,0.0,0.0,0.0,-0.0553845142291671,-9.598828622342385,0.713075620700517,1.131921009558586,3064872.0,3064936.0,64.0,535.1041179761274,9.55263088915554,10.648812764448135,-3.097732515634696,206.0,3.082722300829523,1.0,-4.4238380740546575,-4.458453395447886,2.886917804195293,2.935379254145815,3065586.0,3065611.0,25.0,26.67601594381382,0.059554450769555865,0.1864092105544666,-2.1910458127777064,-1.1902899496825317
146,3128.723334,3.7576916,2,67,2,6,1,1,1.0,-0.399803,3066489.0,3070249.0,3068842.0,3068842.0,0.0,3068449.0,3067239.0,3067239.0,3067239.0,3067632.0,3069240.0,3070249.0,3760.0,750.0,393.0,1009.0,0.0,-398.0,0.0,0.0,0.0,0.0,0.0,0.0,1.0,0.2007688640807263,10.401904078665298,0.3911531317434855,0.5053836923411433,3068419.0,3068508.0,89.0,423.0258852297566,10.201774761638871,11.53208899711856,-0.011197360298207719,787.0,0.0387309971979916,0.0,0.0,0.0,0.0,0.0,0.0,0.0,0.0,0.0,0.0,0.0,0.0,0.0
147,3132.489606,3.5243398,2,68,2,5,1,3,2.0,-0.4414826,3070256.0,3073781.0,3072332.0,0.0,3072332.0,3071948.0,3070772.0,3070772.0,3070772.0,3071565.0,3072773.0,3073781.0,3525.0,516.0,793.0,1008.0,0.0,-441.0,0.0,0.0,0.0,1.0,0.0,0.0,0.0,0.29076869970312236,11.326133159864511,0.43269151741536177,-0.07615370706510526,3071933.0,3072008.0,75.0,357.53389657061985,11.047089762967877,11.879931906238532,0.04607777614812157,368.0,0.06823502271973159,0.0,0.0,0.0,0.0,0.0,0.0,0.0,0.0,0.0,0.0,0.0,0.0,0.0
148,3136.022299,3.5244395,2,69,1,5,2,4,2.0,-0.249522,3073788.0,3077314.0,3076059.0,0.0,3076059.0,3075571.0,3074305.0,3074305.0,3074305.0,3075298.0,3076306.0,3077314.0,3526.0,517.0,993.0,1008.0,0.0,-247.0,0.0,0.0,0.0,1.0,0.0,0.0,0.0,0.03461532139322895,-11.24305638852076,0.14538434985156315,0.28730716756379865,3075550.0,3075612.0,62.0,476.16202479860544,11.278564681854766,12.368461708637918,-3.1290089102342593,252.0,3.1071621320929763,1.0,0.03461532139322895,-11.24305638852076,0.14538434985156315,0.28730716756379865,3075550.0,3075612.0,62.0,476.16202479860544,11.278564681854766,12.368461708637918,-3.1290089102342593,3.1071621320929763
149,3139.555191,3.5244089,2,70,2,8,1,2,1.0,-0.2915257,3077321.0,3080847.0,3079548.0,3079548.0,0.0,3079171.0,3077837.0,3077837.0,3077838.0,3078431.0,3079839.0,3080847.0,3526.0,517.0,593.0,1008.0,0.0,-291.0,0.0,0.0,0.0,0.0,0.0,0.0,1.0,0.09692289990103947,10.315365775182226,0.588460463684892,0.3946146638828092,3079152.0,3079219.0,67.0,447.6914900190938,10.220281355691032,11.215755683685122,0.01896791460442658,721.0,0.036117702447894404,0.0,0.0,0.0,0.0,0.0,0.0,0.0,0.0,0.0,0.0,0.0,0.0,0.0
150,3143.088041,3.5244533,2,71,1,7,2,2,1.0,-0.7164613,3080854.0,3084379.0,3082656.0,3082656.0,0.0,3082280.0,3081370.0,3081370.0,3081370.0,3081963.0,3083372.0,3084380.0,3525.0,516.0,593.0,1008.0,0.0,-716.0,0.0,0.0,0.0,1.0,0.0,0.0,0.0,-0.048461449950519736,-10.242673600256444,0.7719216670690039,0.5261528851770815,3082252.0,3082312.0,60.0,609.0474289885514,10.197174297794344,11.631803913538631,3.1174886640891586,289.0,3.0972368980522527,1.0,-0.9934597239856723,-1.031536577518221,0.6369219136354117,0.6784602993072881,3083244.0,3083266.0,22.0,16.28719434521486,0.05634966068366964,0.11017247121371246,-2.312743594800754,2.3784130555190686
151,3146.620854,3.5244152,2,72,2,1,2,3,2.0,-0.2581635,3084387.0,3087913.0,3086647.0,0.0,3086647.0,3086120.0,3084903.0,3084904.0,3084904.0,3085696.0,3086904.0,3087913.0,3526.0,517.0,792.0,1009.0,1.0,-257.0,0.0,0.0,0.0,0.0,0.0,0.0,1.0,0.1488458819908829,10.183827553887957,0.5711528029882775,1.3984589842864485,3086102.0,3086164.0,62.0,419.7792634037458,10.06902640144142,11.133014946896903,-0.08225620057242486,406.0,-0.09403787232540199,0.0,0.0,0.0,0.0,0.0,0.0,0.0,0.0,0.0,0.0,0.0,0.0,0.0
152,3150.153716,3.5244496,2,73,1,4,1,2,2.0,-0.5164765,3087920.0,3091446.0,3089922.0,0.0,3089922.0,3089469.0,3088436.0,3088436.0,3088436.0,3089029.0,3090437.0,3091446.0,3526.0,516.0,593.0,1009.0,0.0,-515.0,0.0,0.0,0.0,0.0,0.0,0.0,1.0,0.1765381391054684,-9.550367172391864,0.623075785078121,-0.3634608746289039,3089450.0,3089538.0,88.0,563.0962875416541,9.776806304708144,11.164228955499999,3.04051480703408,421.0,3.0241216361386014,0.0,0.0,0.0,0.0,0.0,0.0,0.0,0.0,0.0,0.0,0.0,0.0,0.0
153,3153.686716,3.5242784,2,74,2,6,2,1,1.0,-0.5081229,3091453.0,3094978.0,3093463.0,3093463.0,0.0,3093085.0,3091969.0,3091969.0,3091969.0,3092362.0,3093970.0,3094979.0,3525.0,516.0,393.0,1009.0,0.0,-507.0,0.0,0.0,0.0,0.0,0.0,0.0,1.0,0.10730749631901051,11.305363967028569,0.7442294099544223,1.744612198218738,3093067.0,3093138.0,71.0,376.96369307282674,11.242652464799207,12.304726266936704,-0.08909886934621272,705.0,-0.09099098771585984,0.0,0.0,0.0,0.0,0.0,0.0,0.0,0.0,0.0,0.0,0.0,0.0,0.0
154,3157.21953,3.5243513,2,75,2,7,1,5,1.0,-0.1494808,3094985.0,3098511.0,3097355.0,3097355.0,0.0,3096918.0,3095502.0,3095502.0,3095502.0,3096695.0,3097502.0,3098511.0,3526.0,517.0,1193.0,1009.0,0.0,-147.0,0.0,0.0,0.0,1.0,0.0,0.0,0.0,0.010384596417967108,10.062673929011655,0.8896137598059854,-0.0553845142291671,3096893.0,3096966.0,73.0,414.8996009703081,10.096610449260004,11.184254803092616,0.09373278934525887,198.0,0.10853814580316933,0.0,0.0,0.0,0.0,0.0,0.0,0.0,0.0,0.0,0.0,0.0,0.0,0.0
155,3160.752356,3.52438,2,76,2,4,1,3,1.0,-0.2748669,3098518.0,3102043.0,3100762.0,3100762.0,0.0,3100245.0,3099034.0,3099034.0,3099035.0,3099828.0,3101036.0,3102044.0,3525.0,517.0,793.0,1008.0,0.0,-274.0,0.0,0.0,0.0,1.0,0.0,0.0,0.0,0.1730766069661447,11.222287195684824,0.7546140063723894,-0.14192281771223947,3100223.0,3100273.0,50.0,346.15754082042235,11.085523574048848,11.085523574048848,0.08096298156698604,395.0,0.08096298156698604,1.0,11.249979452799407,10.526519235680919,-0.15230741413020657,-0.09346136776171972,3100275.0,3100295.0,20.0,100.92013693426432,0.7258495318771874,0.7779827174274617,-3.0604316171329233,-3.0166857827193656
156,3164.285228,3.5244393,2,77,1,9,1,1,1.0,-0.3498297,3102051.0,3105576.0,3104220.0,3104220.0,0.0,3103650.0,3102567.0,3102567.0,3102567.0,3102960.0,3104569.0,3105577.0,3525.0,516.0,393.0,1008.0,0.0,-349.0,0.0,0.0,0.0,0.0,0.0,0.0,1.0,0.2007688640807263,-10.952287688817638,0.543460545873696,-0.1349997534335921,3103627.0,3103709.0,82.0,544.7246906416282,11.173673471597658,11.911518879407152,3.0808357420406423,667.0,3.0819835887603113,0.0,0.0,0.0,0.0,0.0,0.0,0.0,0.0,0.0,0.0,0.0,0.0,0.0
157,3167.817993,3.5244886,2,78,1,5,1,2,2.0,-0.3164936,3105584.0,3109110.0,3107786.0,0.0,3107786.0,3107333.0,3106100.0,3106100.0,3106100.0,3106694.0,3108101.0,3109110.0,3526.0,516.0,594.0,1009.0,0.0,-315.0,0.0,0.0,0.0,0.0,0.0,0.0,1.0,0.1869227355234355,-11.339979288421803,0.7615370706510368,-0.6888448957252552,3107310.0,3107386.0,76.0,499.4695543940709,11.617791447518,12.480724419571088,3.0164246210463417,616.0,2.997146084995979,0.0,0.0,0.0,0.0,0.0,0.0,0.0,0.0,0.0,0.0,0.0,0.0,0.0
158,3171.350888,3.5245647,2,79,1,8,1,4,1.0,-0.4415583,3109116.0,3112642.0,3111193.0,3111193.0,0.0,3110816.0,3109633.0,3109633.0,3109633.0,3110626.0,3111634.0,3112642.0,3526.0,517.0,993.0,1008.0,0.0,-441.0,0.0,0.0,0.0,1.0,0.0,0.0,0.0,-0.006923064278647363,-11.187671874291595,0.6923064278645789,-0.5088452244804671,3110791.0,3110862.0,71.0,518.7337514996724,11.245083781125741,11.821303050502737,3.0345727689261413,165.0,3.0180003799934476,1.0,1.779227519611967,1.1630747988124932,1.2842284236887946,1.1596132666731696,3112205.0,3112227.0,22.0,61.16461881394614,0.6286279604874595,0.6263364779144273,2.9420372698845045,-0.23425521359424997
159,3174.883864,3.524297344,2,80,1,1,2,1,2.0,-0.4581302,3112650.0,3116175.0,3114710.0,0.0,3114710.0,3114166.0,3113166.0,3113166.0,3113166.0,3113559.0,3115167.0,3116175.0,3525.0,516.0,393.0,1008.0,0.0,-457.0,0.0,0.0,0.0,0.0,0.0,0.0,1.0,-0.024230724975261835,-11.481902106134042,0.7338448135364551,0.2526918461705697,3114145.0,3114182.0,37.0,574.5749455269482,11.467769689727378,11.469745870646182,3.0996233551421946,586.0,3.095703442063579,0.0,0.0,0.0,0.0,0.0,0.0,0.0,0.0,0.0,0.0,0.0,0.0,0.0
160,3205.67975,3.540930691,3,1,1,4,2,3,2.0,-0.5496083,3143447.0,3146988.0,3145436.0,0.0,3145436.0,3144654.0,3143970.0,3143970.0,3143971.0,3144763.0,3145980.0,3146989.0,3541.0,524.0,792.0,1009.0,0.0,-544.0,0.0,0.0,0.0,0.0,0.0,1.0,0.0,0.4396145816940092,-10.007289414782488,-0.3599993424895802,-0.40153772816145655,3144632.0,3144697.0,65.0,569.5275331492604,10.446986577433744,11.729786134782168,3.1376165314023368,-131.0,-3.1023334502011473,0.0,0.0,0.0,0.0,0.0,0.0,0.0,0.0,0.0,0.0,0.0,0.0,0.0
161,3209.229229,3.532645576,3,2,1,6,1,2,1.0,-0.5496598,3146995.0,3150529.0,3148976.0,3148976.0,0.0,3148511.0,3147511.0,3147512.0,3147512.0,3148104.0,3149521.0,3150529.0,3534.0,517.0,592.0,1008.0,1.0,-545.0,0.0,0.0,0.0,1.0,0.0,0.0,0.0,-0.19730733194140657,-10.159596828912695,0.1349997534335921,-0.5607682065703105,3148491.0,3148566.0,75.0,589.8914135669379,9.986556217016576,11.255473958987466,3.0718657075783273,387.0,3.0732651528132537,1.0,-0.19730733194140657,-10.159596828912695,0.1349997534335921,-0.5607682065703105,3148491.0,3148566.0,75.0,589.8914135669379,9.986556217016576,11.255473958987466,3.0718657075783273,3.0732651528132537
162,3212.770294,3.524446,3,3,1,5,2,5,2.0,0.0919155,3150535.0,3154061.0,3153148.0,0.0,3153148.0,3152552.0,3151052.0,3151052.0,3151052.0,3152245.0,3153053.0,3154061.0,3526.0,517.0,1193.0,1008.0,0.0,95.0,0.0,0.0,0.0,1.0,0.0,0.0,0.0,0.08653830348307236,-10.024597075479102,0.3911531317434855,0.4569222423906236,3152528.0,3152596.0,68.0,553.504894168462,10.111349278291987,11.156086324923841,-3.1350881236196413,283.0,-3.092548447702734,0.0,0.0,0.0,0.0,0.0,0.0,0.0,0.0,0.0,0.0,0.0,0.0,0.0
163,3216.303288,3.524331933,3,4,2,9,1,4,1.0,-0.2998052,3154069.0,3157595.0,3156288.0,3156288.0,0.0,3155928.0,3154585.0,3154585.0,3154585.0,3155578.0,3156587.0,3157595.0,3526.0,516.0,993.0,1008.0,0.0,-299.0,0.0,0.0,0.0,1.0,0.0,0.0,0.0,-0.11769209273697762,10.287673518067644,0.3703839389075513,-0.6819218314466118,3155913.0,3155983.0,70.0,417.4081672215837,10.458440654745624,11.488652040354015,0.10078839909206792,335.0,0.12020672624201277,1.0,-1.4573050306549393,-1.460766562794263,0.4361530495546855,0.1384612855729158,3156789.0,3156812.0,23.0,28.54452527379645,0.2977118884883995,0.2846044696075293,1.5824237097512832,-1.892546881191539
164,3219.836126,3.541143235,3,5,2,10,1,1,1.0,-0.5824583,3157602.0,3161145.0,3159556.0,3159556.0,0.0,3159101.0,3158129.0,3158130.0,3158131.0,3158518.0,3160136.0,3161146.0,3543.0,529.0,387.0,1010.0,1.0,-580.0,0.0,0.0,0.0,0.0,0.0,0.0,1.0,-0.10038443204036315,9.003445094378845,0.017307660696614473,-0.3530762782109368,3159084.0,3159155.0,71.0,361.46869694957445,9.111360837344927,10.28740912442939,0.040661985679199944,566.0,0.05757028681589881,0.0,0.0,0.0,0.0,0.0,0.0,0.0,0.0,0.0,0.0,0.0,0.0,0.0
165,3223.394017,3.524388498,3,6,2,10,1,2,1.0,-0.2582593,3161161.0,3164686.0,3163420.0,3163420.0,0.0,3162993.0,3161677.0,3161677.0,3161677.0,3162267.0,3163677.0,3164686.0,3525.0,516.0,590.0,1009.0,0.0,-257.0,0.0,0.0,0.0,0.0,0.0,0.0,1.0,0.14192281771223947,9.761520632890562,-0.21807652477734077,-0.6784602993072881,3162967.0,3163043.0,76.0,425.2165799071973,9.630608254187997,10.776670213437482,0.047822452243212465,700.0,0.05817110467307449,0.0,0.0,0.0,0.0,0.0,0.0,0.0,0.0,0.0,0.0,0.0,0.0,0.0
166,3226.926853,3.524304126,3,7,2,9,1,5,2.0,-0.0829185,3164692.0,3168218.0,3167128.0,0.0,3167128.0,3166734.0,3165208.0,3165208.0,3165209.0,3166401.0,3167210.0,3168218.0,3526.0,517.0,1192.0,1008.0,0.0,-82.0,0.0,0.0,0.0,1.0,0.0,0.0,0.0,0.3946146638828092,11.198056470709563,-0.373845471046871,-0.9588444025924433,3166688.0,3166762.0,74.0,384.439642636056,10.819268858079162,12.112336236077685,0.05409647943711716,287.0,0.09301440689955043,1.0,8.553445916266869,8.584599705520779,2.243072826281236,2.2361497620025905,3167278.0,3167297.0,19.0,27.023116248940415,0.03191374944883857,0.11428299601955907,0.21866894587390853,2.1840036756694303
167,3230.459686,3.5243225,3,8,1,6,1,2,1.0,-0.1990559,3168225.0,3171750.0,3170545.0,3170545.0,0.0,3170191.0,3168741.0,3168741.0,3168741.0,3169334.0,3170743.0,3171751.0,3525.0,516.0,593.0,1008.0,0.0,-198.0,0.0,0.0,0.0,0.0,0.0,0.0,1.0,-0.024230724975261835,-10.53690383209889,-0.0,-1.3638436628932196,3170167.0,3170254.0,87.0,520.8995689393073,10.600771924442784,11.854686330049091,3.0125799365488666,833.0,3.009812949408065,0.0,0.0,0.0,0.0,0.0,0.0,0.0,0.0,0.0,0.0,0.0,0.0,0.0
168,3233.992492,3.5244099,3,9,2,4,1,1,2.0,-0.7663514,3171758.0,3175284.0,3173510.0,0.0,3173510.0,3173084.0,3172274.0,3172274.0,3172274.0,3172667.0,3174275.0,3175284.0,3526.0,516.0,393.0,1009.0,0.0,-765.0,0.0,0.0,0.0,1.0,0.0,0.0,0.0,-0.15230741413020657,9.758059100751243,0.1107690284583342,0.3011532961210934,3173061.0,3173131.0,70.0,397.98295784844277,9.912195045934931,11.079122330957876,-0.019208255543297897,394.0,-0.040628037681373116,1.0,-2.5753799116562326,-0.15923047840885393,0.3634608746289039,1.5819201876705624,3173676.0,3173717.0,41.0,298.52356101936755,2.7059972618832377,2.8811698401226193,-0.4670800897995091,-2.558921555673671
169,3237.525319,3.5327568,3,10,2,3,2,4,2.0,-0.3657775,3175290.0,3178825.0,3177453.0,0.0,3177453.0,3177016.0,3175807.0,3175807.0,3175807.0,3176800.0,3177817.0,3178825.0,3535.0,517.0,993.0,1008.0,0.0,-364.0,0.0,0.0,0.0,1.0,0.0,0.0,0.0,-0.010384596417967108,9.629982411596293,-0.0,0.5573066744309868,3176985.0,3177059.0,74.0,400.1531319413076,9.656462436036044,10.840410073432986,-0.05774542437308138,185.0,-0.07446977934917506,1.0,-0.2596149104492171,-0.3253840210963513,0.18346120338411182,0.2526918461705697,3178431.0,3178452.0,21.0,20.80921829768529,0.09549061637638076,0.12326165512836819,-2.3305590816706614,-2.4756234162106656
170,3241.066508,3.5327556,3,11,1,3,1,4,2.0,-0.3821907,3178832.0,3182366.0,3180979.0,0.0,3180979.0,3180614.0,3179348.0,3179348.0,3179348.0,3180341.0,3181358.0,3182366.0,3534.0,516.0,993.0,1008.0,0.0,-379.0,0.0,0.0,0.0,1.0,0.0,0.0,0.0,-0.048461449950519736,-10.962672285235609,0.08999983562239604,-0.2526918461705697,3180597.0,3180662.0,65.0,547.7132521223111,10.919589541087364,11.836128460231768,3.1102042979565474,256.0,3.0807244844992803,1.0,0.28730716756379865,0.328845553235675,0.8792291633880144,0.7546140063723894,3181892.0,3181911.0,19.0,24.564957660246893,0.13135590904962902,0.2156453955938423,1.2490457723982449,1.8976229797248385
171,3244.607659,3.5244463,3,12,1,8,2,4,1.0,-0.4997412,3182373.0,3185898.0,3184392.0,3184392.0,0.0,3184082.0,3182889.0,3182889.0,3182889.0,3183882.0,3184891.0,3185899.0,3525.0,516.0,993.0,1008.0,0.0,-499.0,0.0,0.0,0.0,1.0,0.0,0.0,0.0,-0.10384596417968683,-10.34651956443613,-0.04153838567187631,0.017307660696614473,3184053.0,3184131.0,78.0,573.6879645098123,10.242842639549018,11.780626791589675,-3.1358475326153976,171.0,3.1139688766464433,1.0,-1.2184593130416603,-0.2976917639817697,0.11769209273697762,0.33923014965364207,3185208.0,3185237.0,29.0,81.17192407031837,0.9470438163380666,1.0513032703670189,-0.23611364713667476,2.915780972046436
172,3248.14069,3.52428892,3,13,1,5,2,3,2.0,-0.5747373,3185906.0,3189431.0,3187849.0,0.0,3187849.0,3187449.0,3186422.0,3186422.0,3186422.0,3187215.0,3188423.0,3189431.0,3525.0,516.0,793.0,1008.0,0.0,-574.0,0.0,0.0,0.0,1.0,0.0,0.0,0.0,-0.12461515701562499,-10.36728875727207,0.1384612855729158,-0.09692289990103947,3187430.0,3187502.0,72.0,594.2845729920169,10.245377894258539,11.214332568755795,3.1186159610579383,215.0,3.1091765883093037,0.0,0.0,0.0,0.0,0.0,0.0,0.0,0.0,0.0,0.0,0.0,0.0,0.0
173,3251.673481,3.5244988,3,14,1,2,1,5,2.0,-0.1666728,3189438.0,3192964.0,3191790.0,0.0,3191790.0,3191348.0,3189955.0,3189955.0,3189955.0,3191148.0,3191956.0,3192964.0,3526.0,517.0,1193.0,1008.0,0.0,-166.0,0.0,0.0,0.0,1.0,0.0,0.0,0.0,-0.079615239204425,-10.436519400058527,0.3080763603997368,-0.6957679600039025,3191330.0,3191416.0,86.0,608.6910124803375,10.405439309165358,11.715195891937974,3.0449693409064515,182.0,3.03175117276421,1.0,-0.079615239204425,-10.436519400058527,0.3080763603997368,-0.6957679600039025,3191330.0,3191416.0,86.0,608.6910124803375,10.405439309165358,11.715195891937974,3.0449693409064515,3.03175117276421
174,3255.214681,3.524405,3,15,1,1,2,2,2.0,-0.4664911,3192981.0,3196505.0,3195032.0,0.0,3195032.0,3194514.0,3193497.0,3193497.0,3193497.0,3194087.0,3195497.0,3196505.0,3524.0,516.0,590.0,1008.0,0.0,-465.0,0.0,0.0,0.0,0.0,0.0,0.0,1.0,-0.2561533783098934,-12.035747248425706,0.1384612855729158,0.044999917811196055,3194495.0,3194560.0,65.0,570.7438577988161,11.779964633738674,13.057262630281999,3.1336586443446866,408.0,3.108183338774429,0.0,0.0,0.0,0.0,0.0,0.0,0.0,0.0,0.0,0.0,0.0,0.0,0.0
175,3258.747465,3.5244049,3,16,1,10,2,5,1.0,-0.3664593,3196512.0,3200038.0,3198664.0,3198664.0,0.0,3198439.0,3197029.0,3197029.0,3197030.0,3198222.0,3199030.0,3200038.0,3526.0,518.0,1192.0,1008.0,0.0,-366.0,0.0,0.0,0.0,1.0,0.0,0.0,0.0,-0.2388457176132789,-11.229210259963468,0.15230741413020657,0.543460545873696,3198421.0,3198484.0,63.0,608.6748813382295,10.997323017272024,12.156921078697756,-3.1060171183648184,199.0,-3.074058526139186,0.0,0.0,0.0,0.0,0.0,0.0,0.0,0.0,0.0,0.0,0.0,0.0,0.0
176,3262.280249,3.6911334,3,17,1,6,2,4,1.0,-0.3916231,3200045.0,3203738.0,3202339.0,3202339.0,0.0,3201955.0,3200728.0,3200728.0,3200728.0,3201721.0,3202730.0,3203738.0,3693.0,683.0,993.0,1008.0,0.0,-391.0,0.0,0.0,0.0,1.0,0.0,0.0,0.0,-0.48115296736588153,-11.004210670907481,-0.05192298208984342,-0.11769209273697762,3201927.0,3201993.0,66.0,565.2555268867452,10.523263230005297,11.346003142385738,3.1353427349680945,206.0,3.100699432950783,0.0,0.0,0.0,0.0,0.0,0.0,0.0,0.0,0.0,0.0,0.0,0.0,0.0
177,3265.979819,3.5244149,3,18,1,2,2,5,2.0,-0.4081338,3203745.0,3207270.0,3205856.0,0.0,3205856.0,3205411.0,3204261.0,3204261.0,3204261.0,3205454.0,3206262.0,3207271.0,3525.0,516.0,1193.0,1009.0,0.0,-406.0,0.0,0.0,0.0,0.0,0.0,1.0,0.0,-0.14538434985156315,-10.526519235680922,-0.079615239204425,0.024230724975261835,3205391.0,3205458.0,67.0,553.7372593853299,10.381654275791492,11.67314915856513,-3.131589652791835,-63.0,3.097690930638157,0.0,0.0,0.0,0.0,0.0,0.0,0.0,0.0,0.0,0.0,0.0,0.0,0.0
178,3269.512804,3.524302398,3,19,2,5,1,3,2.0,-0.4164909,3207278.0,3210804.0,3209380.0,0.0,3209380.0,3208944.0,3207794.0,3207794.0,3207794.0,3208587.0,3209795.0,3210804.0,3526.0,516.0,793.0,1009.0,0.0,-415.0,0.0,0.0,0.0,1.0,0.0,0.0,0.0,-0.41538385671874734,9.539982575973895,-0.1107690284583342,-0.543460545873696,3208916.0,3208991.0,75.0,423.2933145097114,9.964765062881645,11.38915090899374,0.043435806290389754,329.0,0.056257166484298925,1.0,9.539982575973895,9.882674257766864,-0.5538451422916632,-0.5746143351276013,3208993.0,3209021.0,28.0,32.60502772089824,0.34332047439841157,0.3685840982370865,0.06053201978210886,-2.8852249612719985
179,3273.04562,3.5243347,3,20,1,7,2,3,1.0,-0.3414813,3210810.0,3214336.0,3212988.0,3212988.0,0.0,3212536.0,3211327.0,3211327.0,3211327.0,3212119.0,3213328.0,3214336.0,3526.0,517.0,792.0,1008.0,0.0,-340.0,0.0,0.0,0.0,1.0,0.0,0.0,0.0,0.0034615321393236813,-10.242673600256444,-0.1107690284583342,-0.4846144995052052,3212516.0,3212606.0,90.0,559.0288074418977,10.252953017913281,11.352690864241158,3.1051223452278145,397.0,3.088208310099058,1.0,-1.744612198218738,-0.29076869970312236,0.9449982740351486,0.872306099109371,3213328.0,3213375.0,47.0,128.08838298643923,1.4556596684910814,1.8505604634869766,0.0499583957219406,3.025358130196785
180,3276.578451,3.5243682,3,21,2,2,2,4,2.0,-0.2665372,3214343.0,3217869.0,3216596.0,0.0,3216596.0,3216186.0,3214860.0,3214860.0,3214860.0,3215853.0,3216861.0,3217870.0,3526.0,517.0,993.0,1009.0,0.0,-265.0,0.0,0.0,0.0,1.0,0.0,0.0,0.0,-0.05884604636849078,10.384596417968684,0.11769209273697762,0.9484598061744722,3216168.0,3216241.0,73.0,422.0944625199997,10.47643381593236,11.646100979297211,-0.07938205741072775,315.0,-0.08600450251757676,1.0,-0.9346136776171815,-1.0038443204036394,-0.27346103900650787,-0.10384596417968683,3217557.0,3217577.0,20.0,36.94103389991817,0.1831997694025138,0.25200334359546833,-1.9583201325751771,1.9359977765830747
181,3280.111328,3.5243413,3,22,2,4,1,1,2.0,-0.2331061,3217876.0,3221402.0,3220162.0,0.0,3220162.0,3219152.0,3218392.0,3218392.0,3218393.0,3218786.0,3220394.0,3221402.0,3526.0,517.0,393.0,1008.0,0.0,-232.0,0.0,0.0,0.0,1.0,0.0,0.0,0.0,0.03461532139322895,11.45767138115878,0.044999917811196055,0.3461532139322894,3219122.0,3219200.0,78.0,395.54558168115193,11.427025118214763,12.949281292695492,-0.02635753097064152,336.0,-0.045726732710800036,1.0,0.03461532139322895,11.45767138115878,0.044999917811196055,0.3461532139322894,3219122.0,3219200.0,78.0,395.54558168115193,11.427025118214763,12.949281292695492,-0.02635753097064152,-0.045726732710800036
182,3283.644112,3.5244072,3,23,2,5,1,3,2.0,-0.4414694,3221409.0,3224934.0,3223486.0,0.0,3223486.0,3223058.0,3221925.0,3221925.0,3221925.0,3222719.0,3223926.0,3224934.0,3525.0,516.0,794.0,1008.0,0.0,-440.0,0.0,0.0,0.0,1.0,0.0,0.0,0.0,-0.048461449950519736,10.68228818195045,0.04153838567187631,0.044999917811196055,3223037.0,3223111.0,74.0,415.35581095137894,10.73075019021259,11.441306307630251,-0.0003225806339719362,318.0,0.05084979573966497,1.0,-2.0215347693645693,-1.4399973699583248,0.31846095681770786,0.3011532961210934,3224061.0,3224090.0,29.0,68.11590086773242,0.5817948968725725,0.653166441406386,0.029753122018665135,0.2462640094627205
