onset	duration	run_number	trial_number	task	ext_mot_pos	ext_mot_ver_dir	staircase_num	fix_off_prct	trial_type	ext_mot_ori	direction_report	response_duration
4789.567642	3.699247625	1	1	1	2	2	1	4	2	-15	2	0.566857
4793.275209	3.5078696	1	2	1	2	2	2	3	1	-65	1	0.3419687
4796.791408	3.5078371	1	3	1	1	1	2	3	1	-60	1	0.3336159
4800.307575	3.5078488	1	4	1	2	1	2	2	1	-55	1	0.3175815
4803.832229	3.5160079	1	5	1	1	2	1	4	1	-20	2	0.3258129
4807.3649	3.5078397	1	6	1	1	1	1	1	1	-25	2	0.5583867
4810.881075	3.5078481	1	7	1	1	2	1	5	2	-30	2	0.4834252
4814.397253	3.5078118	1	8	1	1	1	1	5	2	-35	1	0.3254148
4817.91342	3.5078352	1	9	1	1	2	2	4	2	-50	1	0.2925194
4821.429584	3.5078241	1	10	1	1	1	2	3	2	-45	1	0.3668186
4824.945758	3.5078302	1	11	1	2	1	2	5	2	-40	2	0.3424991
4828.461908	3.5078323	1	12	1	2	1	2	2	1	-45	2	0.5418218
4831.978216	3.5077018	1	13	1	2	2	2	4	2	-50	1	0.4167703
4835.494254	3.5078219	1	14	1	1	2	1	2	2	-30	2	0.45848
4839.010404	3.5078059	1	15	1	1	2	1	1	1	-35	2	0.2999693
4842.526557	3.5078489	1	16	1	1	1	1	4	2	-40	2	0.3917873
4846.042725	3.5078326	1	17	1	2	1	2	1	1	-45	1	-0.1244312
4849.567412	3.5076437	1	18	1	2	2	1	2	1	-45	1	0.3667808
4853.083461	3.5077828	1	19	1	1	1	1	3	2	-40	n/a	n/a
4856.599571	3.5078478	1	20	1	1	2	1	2	1	-40	1	0.4919409
4860.115741	3.5078379	1	21	1	1	2	1	3	1	-35	1	0.8000782
4863.631905	3.5078344	1	22	1	2	1	1	1	1	-30	1	0.40014
4867.148076	3.5078433	1	23	1	1	2	2	4	1	-40	1	0.1668642
4870.66428	3.507798	1	24	1	1	2	2	4	1	-35	2	0.3501207
4874.180394	3.5078518	1	25	1	2	1	1	1	1	-25	2	0.558574
4877.696573	3.5078497	1	26	1	2	1	1	4	1	-30	2	0.3917885
4881.212747	3.5078362	1	27	1	1	2	2	1	2	-40	1	0.391649
4884.729044	3.5077016	1	28	1	2	2	2	1	1	-35	2	0.366805
4888.245064	3.5078623	1	29	1	1	1	1	2	1	-35	1	0.9166264
4891.761237	3.5078414	1	30	1	2	2	2	5	2	-40	2	0.4083007
4895.277401	3.5078494	1	31	1	1	2	2	1	1	-45	2	0.3250049
4898.793717	3.5077126	1	32	1	2	1	2	2	1	-50	1	0.325219
4902.309756	3.5078256	1	33	1	1	2	2	5	2	-45	1	0.4338458
4905.825917	3.507835	1	34	1	1	2	2	4	1	-40	n/a	n/a
4909.342217	3.5077048	1	35	1	2	2	1	3	1	-30	2	0.3499092409
4912.858252	3.4994698	1	36	1	2	1	2	1	2	-40	1	0.4084482
4916.36609	3.5078527	1	37	1	2	1	1	4	2	-35	1	0.4084534
4919.882428	3.5076733	1	38	1	2	1	1	2	1	-30	1	0.3084261
4923.398432	3.507849	1	39	1	1	2	1	5	1	-25	2	0.3584464
4926.914582	3.5078678	1	40	1	1	1	1	4	1	-30	2	0.3168104
4930.430784	3.5078209	1	41	1	2	1	1	5	2	-35	1	0.7248884
4933.946943	3.5078348	1	42	1	2	1	1	1	1	-30	1	0.491777
4937.463107	3.5077974	1	43	1	2	1	1	1	2	-25	2	0.3501177
4940.979263	3.507834	1	44	1	1	1	1	4	2	-30	2	0.5833108
4944.495429	3.5078392	1	45	1	1	2	1	5	2	-35	1	0.4006354
4948.011597	3.5078524	1	46	1	1	1	2	3	1	-35	1	0.3084755
4951.527781	3.5078358	1	47	1	2	2	2	1	2	-30	2	0.2754588
4955.043909	3.5078486	1	48	1	1	2	1	1	1	-30	1	0.2584694
4958.560091	3.5078695	1	49	1	2	1	2	5	2	-35	1	0.3249938
4962.076428	3.9993154	1	50	1	1	2	1	3	1	-25	2	0.3001227
4966.084047	3.507849	1	51	1	1	2	2	2	1	-30	2	0.3334539
4969.600227	3.5078441	1	52	1	1	1	2	3	2	-35	1	0.3418267
4973.1164	3.5078064	1	53	1	2	1	1	3	2	-30	1	0.3501155
4976.632695	3.5077168	1	54	1	1	1	2	3	1	-30	2	0.3667635
4980.148737	3.5078346	1	55	1	1	1	2	4	1	-35	2	0.6750677
4983.664911	3.5078474	1	56	1	2	1	1	2	1	-25	1	0.4000647
4987.181082	3.5078341	1	57	1	1	1	1	3	1	-20	2	0.3084789
4990.697234	3.5078522	1	58	1	1	2	1	2	1	-25	1	0.2751254
4994.213421	3.5078193	1	59	1	2	1	1	3	2	-20	1	0.4834223
4997.729575	3.5078515	1	60	1	2	2	2	3	2	-40	2	-0.2162868
5001.24576	3.5078497	1	61	1	2	2	1	2	1	-15	2	0.3334349
5004.761928	3.5078402	1	62	1	2	2	2	2	1	-45	1	0.3833546
5008.278104	3.5078724	1	63	1	1	1	2	4	1	-40	2	0.3834449
5011.794255	3.5078347	1	64	1	2	1	2	5	1	-45	1	0.3584737
5015.310556	3.5077114	1	65	1	1	2	1	3	2	-20	2	0.4667915
5018.826608	3.5078006	1	66	1	1	1	2	5	1	-40	2	0.3417941
5022.342778	3.5077962	1	67	1	2	2	2	4	1	-45	1	0.3085395
5025.858919	3.5078766	1	68	1	2	2	1	5	2	-25	2	0.3501123
5029.375106	3.4995335	1	69	1	2	1	2	1	1	-40	1	0.258449
5032.882935	3.5078211	1	70	1	2	2	2	3	2	-35	2	0.4084398
5036.399101	3.5078496	1	71	1	2	1	1	1	2	-30	1	0.2918339
5039.915284	3.5078388	1	72	1	1	2	1	2	2	-25	2	0.3584748
5043.431455	3.5078007	1	73	1	2	1	2	4	2	-40	1	0.366791
5046.947597	3.5078453	1	74	1	1	2	2	4	2	-35	n/a	n/a
5050.463772	3.5078541	1	75	1	1	2	1	4	2	-30	2	0.458498
5053.979959	3.5078263	1	76	1	1	2	2	3	1	-35	1	0.5084404
5057.496118	3.5078699	1	77	1	2	1	2	1	2	-30	1	0.4167543
5061.01233	3.507812	1	78	1	1	1	1	5	2	-35	1	0.3251397
5064.528493	3.5078404	1	79	1	1	2	2	4	2	-25	2	0.3500856
5068.044676	3.5078268	1	80	1	2	2	1	4	2	-30	2	0.3834392
5071.560852	3.5078554	1	81	1	2	1	2	2	2	-30	1	0.4584776
5075.076981	3.5078805	1	82	1	2	2	1	5	1	-35	2	0.3584477
5078.593184	3.999561	1	83	1	1	1	2	3	2	-25	2	0.7500349
5082.600976	3.5078109	1	84	1	2	2	2	2	1	-30	2	0.2918014
5086.117107	3.5078849	1	85	1	2	1	2	1	1	-35	1	0.4834224
5089.633291	3.5078113	1	86	1	2	2	1	5	1	-40	1	0.3834431
5093.149435	3.9994388	1	87	1	1	2	2	5	1	-30	2	0.3501053
5097.157205	3.5078784	1	88	1	1	1	1	4	1	-35	2	0.3083392
5100.673412	3.5078705	1	89	1	1	1	1	1	1	-40	1	0.3584608
5104.189607	3.5078341	1	90	1	2	1	2	1	1	-35	1	0.2917769
5107.705771	3.5078437	1	91	1	1	2	1	3	1	-35	2	0.2834935
5111.221952	3.5078337	1	92	1	1	1	2	5	2	-30	1	0.191635
5114.738118	3.5078458	1	93	1	2	2	1	2	2	-40	2	0.4251057
5118.254292	3.5078428	1	94	1	1	1	1	2	1	-45	1	0.3667776
5121.770444	3.5078674	1	95	1	2	2	2	3	2	-25	2	0.3917868
5125.28664	3.5078578	1	96	1	2	2	1	5	1	-40	2	0.3333308
5128.802799	3.5078533	1	97	1	1	1	2	5	2	-30	n/a	n/a
5132.318984	3.5078576	1	98	1	2	1	1	2	1	-45	1	0.4751385
5135.83516	3.5078548	1	99	1	1	2	2	4	1	-30	1	0.4001108
5139.35135	3.5078129	1	100	1	2	1	2	1	2	-25	2	0.4333893
