,onset,duration,run_number,trial_number,task,ext_mot_pos,ext_mot_ver_dir,staircase_num,fix_off_prct,trial_type,exp_mot_ori,direction_report,response_duration,trial_onset,trial_offset,button_press_onset,button_left,button_right,fix_break,motion_onset,motion_offset,fixation_onset,fixation_offset,response_onset,response_offset,trial_duration,fix_check_duration,fixation_duration,response_duration,motion_duration,reaction_time
0,1413.387042,3.7828125,1,1,1,1,1,2,3,1,65,1.0,0.4255046,1324306.0,1328089.0,1327523.0,1327523.0,0.0,0.0,1325090.0,1327089.0,1325090.0,1328090.0,1327096.0,1328090.0,3783.0,784.0,3000.0,994.0,1999.0,427.0
1,1417.178175,3.5078584,1,2,1,1,2,1,1,2,15,2.0,0.3337709,1328096.0,1331606.0,1330947.0,0.0,1330947.0,0.0,1328614.0,1330605.0,1328615.0,1331606.0,1330612.0,1331606.0,3510.0,519.0,2991.0,994.0,1991.0,335.0
2,1420.69438,3.5077835,1,3,1,2,1,2,3,2,60,1.0,0.5004585,1331612.0,1335121.0,1334630.0,1334630.0,0.0,0.0,1332130.0,1334121.0,1332131.0,1335121.0,1334128.0,1335121.0,3509.0,519.0,2990.0,993.0,1991.0,502.0
3,1424.218826,3.5078305,1,4,1,2,2,2,4,2,55,1.0,0.3169511,1335138.0,1338645.0,1337972.0,1337972.0,0.0,0.0,1335655.0,1337646.0,1335655.0,1338646.0,1337653.0,1338646.0,3507.0,517.0,2991.0,993.0,1991.0,319.0
4,1427.734983,3.5161481,1,5,1,1,1,1,4,1,20,1.0,0.7007895,1338653.0,1342171.0,1341880.0,1341880.0,0.0,0.0,1339179.0,1341172.0,1339180.0,1342173.0,1341179.0,1342176.0,3518.0,527.0,2993.0,997.0,1993.0,701.0
5,1431.276157,3.50781,1,6,1,2,2,2,5,2,50,2.0,0.1004462,1342194.0,1345703.0,1344812.0,0.0,1344812.0,0.0,1342711.0,1344703.0,1342712.0,1345703.0,1344710.0,1345703.0,3509.0,518.0,2991.0,993.0,1992.0,102.0
6,1434.792302,3.5079121,1,7,1,1,1,1,3,1,15,2.0,0.0919392,1345710.0,1349219.0,1348320.0,0.0,1348320.0,0.0,1346228.0,1348220.0,1346228.0,1349219.0,1348226.0,1349219.0,3509.0,518.0,2991.0,993.0,1992.0,94.0
7,1438.3085,3.5077558,1,8,1,2,1,2,3,2,55,2.0,0.741862,1349226.0,1352735.0,1352486.0,0.0,1352486.0,0.0,1349744.0,1351735.0,1349744.0,1352736.0,1351742.0,1352736.0,3509.0,518.0,2992.0,994.0,1991.0,744.0
8,1441.824552,3.5078612,1,9,1,1,1,2,1,1,60,1.0,0.2842947,1352742.0,1356252.0,1355545.0,1355545.0,0.0,0.0,1353260.0,1355251.0,1353260.0,1356252.0,1355258.0,1356252.0,3510.0,518.0,2992.0,994.0,1991.0,287.0
9,1445.340922,3.5076495,1,10,1,1,1,2,5,2,55,1.0,0.2251776,1356258.0,1359767.0,1359002.0,1359002.0,0.0,0.0,1356777.0,1358768.0,1356777.0,1359767.0,1358774.0,1359767.0,3509.0,519.0,2990.0,993.0,1991.0,228.0
10,1448.856902,3.5161537,1,11,1,2,1,1,1,1,20,2.0,0.0185548,1359774.0,1363292.0,1362312.0,0.0,1362312.0,0.0,1360293.0,1362284.0,1360293.0,1363293.0,1362291.0,1363293.0,3518.0,519.0,3000.0,1002.0,1991.0,21.0
11,1452.381515,3.5077043,1,12,1,2,2,1,5,2,25,2.0,0.2002422,1363299.0,1366808.0,1366017.0,0.0,1366017.0,0.0,1363817.0,1365808.0,1363817.0,1366808.0,1365815.0,1366808.0,3509.0,518.0,2991.0,993.0,1991.0,202.0
12,1455.897717,3.507632,1,13,1,1,2,2,3,2,50,1.0,0.7750389,1366815.0,1370324.0,1370108.0,1370108.0,0.0,0.0,1367333.0,1369324.0,1367334.0,1370324.0,1369331.0,1370324.0,3509.0,519.0,2990.0,993.0,1991.0,777.0
13,1459.413764,3.5077389,1,14,1,2,2,2,4,2,45,n/a,n/a,1370331.0,1373840.0,0.0,0.0,0.0,0.0,1370849.0,1372841.0,1370849.0,1373840.0,1372848.0,1373841.0,3509.0,518.0,2991.0,993.0,1992.0,-1372848.0
14,1462.929835,3.5078058,1,15,1,2,2,1,1,2,30,2.0,0.2836509,1373847.0,1377357.0,1376649.0,0.0,1376649.0,0.0,1374365.0,1376357.0,1374365.0,1377357.0,1376363.0,1377357.0,3510.0,518.0,2992.0,994.0,1992.0,286.0
15,1466.446083,3.5077264,1,16,1,2,1,1,2,2,35,2.0,0.2083535,1377363.0,1380873.0,1380089.0,0.0,1380089.0,0.0,1377881.0,1379872.0,1377881.0,1380873.0,1379880.0,1380873.0,3510.0,518.0,2992.0,993.0,1991.0,209.0
16,1469.962143,3.5078025,1,17,1,2,2,1,1,2,40,2.0,0.20015,1380879.0,1384389.0,1383598.0,0.0,1383598.0,0.0,1381398.0,1383389.0,1381398.0,1384390.0,1383396.0,1384390.0,3510.0,519.0,2992.0,994.0,1991.0,202.0
17,1473.478435,3.5077003,1,18,1,1,1,2,3,1,45,1.0,0.141859,1384396.0,1387904.0,1387055.0,1387055.0,0.0,0.0,1384914.0,1386905.0,1384914.0,1387905.0,1386912.0,1387905.0,3508.0,518.0,2991.0,993.0,1991.0,143.0
18,1476.994465,3.5078345,1,19,1,2,2,2,5,1,40,2.0,0.2250252,1387912.0,1391421.0,1390654.0,0.0,1390654.0,0.0,1388430.0,1390421.0,1388430.0,1391421.0,1390428.0,1391421.0,3509.0,518.0,2991.0,993.0,1991.0,226.0
19,1480.510636,3.5078114,1,20,1,1,2,1,3,1,45,2.0,0.2250006,1391428.0,1394937.0,1394170.0,0.0,1394170.0,0.0,1391946.0,1393938.0,1391946.0,1394937.0,1393944.0,1394937.0,3509.0,518.0,2991.0,993.0,1992.0,226.0
20,1484.026778,3.5078188,1,21,1,2,2,2,1,2,45,2.0,0.333336,1394944.0,1398453.0,1397796.0,0.0,1397796.0,0.0,1395462.0,1397454.0,1395462.0,1398454.0,1397461.0,1398454.0,3509.0,518.0,2992.0,993.0,1992.0,335.0
21,1487.54293,3.5078068,1,22,1,1,2,2,3,2,50,2.0,0.3084612,1398460.0,1401970.0,1401286.0,0.0,1401286.0,0.0,1398978.0,1400969.0,1398978.0,1401970.0,1400976.0,1401970.0,3510.0,518.0,2992.0,994.0,1991.0,310.0
22,1491.059096,3.5078119,1,23,1,2,1,1,1,2,50,1.0,0.6583804,1401976.0,1405486.0,1405152.0,1405152.0,0.0,0.0,1402494.0,1404485.0,1402494.0,1405486.0,1404493.0,1405486.0,3510.0,518.0,2992.0,993.0,1991.0,659.0
23,1494.57524,3.5078201,1,24,1,2,2,1,1,2,45,1.0,0.5918137,1405492.0,1409001.0,1408603.0,1408603.0,0.0,0.0,1406011.0,1408002.0,1406011.0,1409001.0,1408009.0,1409001.0,3509.0,519.0,2990.0,992.0,1991.0,594.0
24,1498.091394,3.507839,1,25,1,2,1,1,2,2,40,2.0,0.575178,1409009.0,1412518.0,1412102.0,0.0,1412102.0,0.0,1409527.0,1411518.0,1409527.0,1412518.0,1411525.0,1412518.0,3509.0,518.0,2991.0,993.0,1991.0,577.0
25,1501.607557,3.5079495,1,26,1,1,1,2,5,1,55,1.0,0.2501056,1412525.0,1416034.0,1415292.0,1415292.0,0.0,0.0,1413042.0,1415034.0,1413042.0,1416034.0,1415041.0,1416034.0,3509.0,517.0,2992.0,993.0,1992.0,251.0
26,1505.12372,3.5078185,1,27,1,2,1,2,5,1,50,1.0,0.5500767,1416041.0,1419550.0,1419109.0,1419109.0,0.0,0.0,1416559.0,1418551.0,1416559.0,1419550.0,1418557.0,1419550.0,3509.0,518.0,2991.0,993.0,1992.0,552.0
27,1508.639837,3.5078432,1,28,1,1,2,1,3,2,45,2.0,0.2334674,1419557.0,1423066.0,1422308.0,0.0,1422308.0,0.0,1420075.0,1422066.0,1420075.0,1423067.0,1422073.0,1423067.0,3509.0,518.0,2992.0,994.0,1991.0,235.0
28,1512.156013,3.507847,1,29,1,2,1,1,3,2,50,1.0,0.4251193,1423073.0,1426583.0,1426016.0,1426016.0,0.0,0.0,1423591.0,1425582.0,1423591.0,1426583.0,1425589.0,1426583.0,3510.0,518.0,2992.0,994.0,1991.0,427.0
29,1515.672158,3.5078349,1,30,1,1,2,1,3,2,45,2.0,0.2171805,1426589.0,1430098.0,1429325.0,0.0,1429325.0,0.0,1427108.0,1429099.0,1427108.0,1430098.0,1429106.0,1430098.0,3509.0,519.0,2990.0,992.0,1991.0,219.0
30,1519.18831,3.5078686,1,31,1,2,1,2,4,2,45,1.0,0.1666976,1430105.0,1433614.0,1432790.0,1432790.0,0.0,0.0,1430624.0,1432615.0,1430624.0,1433615.0,1432622.0,1433615.0,3509.0,519.0,2991.0,993.0,1991.0,168.0
31,1522.704495,3.5078188,1,32,1,2,1,1,5,2,50,1.0,0.2417691,1433622.0,1437131.0,1436381.0,1436381.0,0.0,0.0,1434139.0,1436131.0,1434139.0,1437131.0,1436138.0,1437131.0,3509.0,517.0,2992.0,993.0,1992.0,243.0
32,1526.22066,3.5078109,1,33,1,2,1,2,4,1,40,1.0,0.25013,1437138.0,1440647.0,1439905.0,1439905.0,0.0,0.0,1437656.0,1439647.0,1437656.0,1440647.0,1439654.0,1440647.0,3509.0,518.0,2991.0,993.0,1991.0,251.0
33,1529.736959,3.5076542,1,34,1,2,2,1,1,1,45,2.0,0.0751447,1440654.0,1444163.0,1443247.0,0.0,1443247.0,0.0,1441172.0,1443163.0,1441172.0,1444164.0,1443170.0,1444164.0,3509.0,518.0,2992.0,994.0,1991.0,77.0
34,1533.252952,3.5078321,1,35,1,2,1,2,3,2,35,2.0,0.1584734,1444170.0,1447679.0,1446846.0,0.0,1446846.0,0.0,1444688.0,1446679.0,1444688.0,1447679.0,1446686.0,1447679.0,3509.0,518.0,2991.0,993.0,1991.0,160.0
35,1536.769104,3.507788,1,36,1,2,1,1,3,1,50,1.0,0.5499294,1447686.0,1451195.0,1450754.0,1450754.0,0.0,0.0,1448205.0,1450196.0,1448205.0,1451195.0,1450203.0,1451195.0,3509.0,519.0,2990.0,992.0,1991.0,551.0
36,1540.285257,3.507873,1,37,1,2,1,1,3,1,45,1.0,0.2917936,1451202.0,1454712.0,1454012.0,1454012.0,0.0,0.0,1451720.0,1453712.0,1451720.0,1454712.0,1453718.0,1454712.0,3510.0,518.0,2992.0,994.0,1992.0,294.0
37,1543.801412,3.5078343,1,38,1,2,1,2,4,2,40,n/a,n/a,1454718.0,1458228.0,0.0,0.0,0.0,0.0,1455236.0,1457228.0,1455236.0,1458228.0,1457235.0,1458228.0,3510.0,518.0,2992.0,993.0,1992.0,-1457235.0
38,1547.317705,3.5076959,1,39,1,2,2,2,4,1,40,n/a,n/a,1458235.0,1461744.0,0.0,0.0,0.0,0.0,1458753.0,1460744.0,1458753.0,1461744.0,1460751.0,1461744.0,3509.0,518.0,2991.0,993.0,1991.0,-1460751.0
39,1550.833723,3.5078209,1,40,1,1,1,1,4,2,40,1.0,0.624993,1461750.0,1465260.0,1464894.0,1464894.0,0.0,0.0,1462269.0,1464261.0,1462269.0,1465260.0,1464267.0,1465261.0,3510.0,519.0,2991.0,994.0,1992.0,627.0
40,1554.349877,3.5078366,1,41,1,2,2,1,3,2,35,2.0,0.0751862,1465267.0,1468776.0,1467860.0,0.0,1467860.0,0.0,1465785.0,1467776.0,1465785.0,1468776.0,1467783.0,1468776.0,3509.0,518.0,2991.0,993.0,1991.0,77.0
41,1557.86605,3.5077916,1,42,1,2,1,2,5,1,40,1.0,0.3667121,1468783.0,1472292.0,1471667.0,1471667.0,0.0,0.0,1469301.0,1471293.0,1469302.0,1472292.0,1471300.0,1472292.0,3509.0,519.0,2990.0,992.0,1992.0,367.0
42,1561.382175,3.5078208,1,43,1,2,1,2,1,1,35,2.0,0.1167943,1472299.0,1475808.0,1474934.0,0.0,1474934.0,0.0,1472817.0,1474809.0,1472817.0,1475808.0,1474815.0,1475808.0,3509.0,518.0,2991.0,993.0,1992.0,119.0
43,1564.898332,3.5078224,1,44,1,2,2,2,5,1,40,2.0,0.6335018,1475815.0,1479325.0,1478967.0,0.0,1478967.0,0.0,1476333.0,1478325.0,1476333.0,1479325.0,1478331.0,1479325.0,3510.0,518.0,2992.0,994.0,1992.0,636.0
44,1568.414497,3.5078388,1,45,1,2,1,1,5,2,40,1.0,0.825047,1479331.0,1482841.0,1482674.0,1482674.0,0.0,0.0,1479849.0,1481840.0,1479850.0,1482841.0,1481848.0,1482841.0,3510.0,519.0,2991.0,993.0,1991.0,826.0
45,1571.930669,3.5078017,1,46,1,2,1,2,1,2,45,1.0,0.3168261,1482847.0,1486357.0,1485682.0,1485682.0,0.0,0.0,1483366.0,1485357.0,1483366.0,1486357.0,1485364.0,1486357.0,3510.0,519.0,2991.0,993.0,1991.0,318.0
46,1575.446803,3.5077948,1,47,1,2,1,2,5,1,40,1.0,-0.0246212,1486364.0,1489873.0,1488857.0,1488857.0,0.0,0.0,1486882.0,1488873.0,1486882.0,1489873.0,1488880.0,1489873.0,3509.0,518.0,2991.0,993.0,1991.0,-23.0
47,1578.962929,3.5078604,1,48,1,2,1,2,3,2,35,2.0,0.3749731,1489880.0,1493389.0,1492772.0,0.0,1492772.0,0.0,1490398.0,1492389.0,1490398.0,1493389.0,1492396.0,1493389.0,3509.0,518.0,2991.0,993.0,1991.0,376.0
48,1582.479321,3.5076266,1,49,1,2,1,1,5,1,35,1.0,0.0918191,1493396.0,1496906.0,1496006.0,1496006.0,0.0,0.0,1493914.0,1495906.0,1493914.0,1496906.0,1495912.0,1496906.0,3510.0,518.0,2992.0,994.0,1992.0,94.0
49,1585.99528,3.5078319,1,50,1,2,1,2,2,2,40,1.0,-0.0497983,1496912.0,1500421.0,1499380.0,1499380.0,0.0,0.0,1497430.0,1499421.0,1497431.0,1500421.0,1499428.0,1500421.0,3509.0,519.0,2990.0,993.0,1991.0,-48.0
50,1589.51145,3.5078026,1,51,1,2,2,2,1,2,35,2.0,-0.149575,1500428.0,1503937.0,1502797.0,0.0,1502797.0,0.0,1500947.0,1502938.0,1500947.0,1503937.0,1502944.0,1503937.0,3509.0,519.0,2990.0,993.0,1991.0,-147.0
51,1593.027605,3.5078198,1,52,1,2,2,1,4,2,30,2.0,-0.0581029,1503944.0,1507454.0,1506404.0,0.0,1506404.0,0.0,1504462.0,1506454.0,1504462.0,1507454.0,1506461.0,1507454.0,3510.0,518.0,2992.0,993.0,1992.0,-57.0
52,1596.543757,3.5078246,1,53,1,2,2,1,4,2,35,2.0,-0.0997649,1507460.0,1510970.0,1509878.0,0.0,1509878.0,0.0,1507978.0,1509970.0,1507978.0,1510970.0,1509977.0,1510970.0,3510.0,518.0,2992.0,993.0,1992.0,-99.0
53,1600.060065,3.5077568,1,54,1,2,1,1,5,1,40,1.0,0.0583458,1510977.0,1514486.0,1513553.0,1513553.0,0.0,0.0,1511495.0,1513486.0,1511495.0,1514486.0,1513493.0,1514486.0,3509.0,518.0,2991.0,993.0,1991.0,60.0
54,1603.57608,3.5078127,1,55,1,2,1,1,3,2,35,2.0,0.4584358,1514493.0,1518003.0,1517469.0,0.0,1517469.0,0.0,1515011.0,1517002.0,1515011.0,1518003.0,1517009.0,1518003.0,3510.0,518.0,2992.0,994.0,1991.0,460.0
55,1607.09223,3.5078046,1,56,1,1,2,2,3,2,40,2.0,0.0252025,1518009.0,1521518.0,1520552.0,0.0,1520552.0,0.0,1518527.0,1520518.0,1518527.0,1521518.0,1520525.0,1521518.0,3509.0,518.0,2991.0,993.0,1991.0,27.0
56,1610.608431,3.5077137,1,57,1,1,1,1,1,1,40,1.0,0.1834582,1521525.0,1525034.0,1524226.0,1524226.0,0.0,0.0,1522043.0,1524035.0,1522044.0,1525034.0,1524041.0,1525035.0,3509.0,519.0,2990.0,994.0,1992.0,185.0
57,1614.124623,3.5077292,1,58,1,2,2,2,1,1,45,2.0,-0.0997578,1525041.0,1528550.0,1527459.0,0.0,1527459.0,0.0,1525559.0,1527551.0,1525559.0,1528551.0,1527557.0,1528551.0,3509.0,518.0,2992.0,994.0,1992.0,-98.0
58,1617.640664,3.5078675,1,59,1,1,2,2,4,2,50,2.0,0.1168152,1528557.0,1532067.0,1531192.0,0.0,1531192.0,0.0,1529075.0,1531067.0,1529075.0,1532067.0,1531074.0,1532067.0,3510.0,518.0,2992.0,993.0,1992.0,118.0
59,1621.156828,3.5078784,1,60,1,1,2,2,2,1,55,1.0,0.3417647,1532073.0,1535583.0,1534933.0,1534933.0,0.0,0.0,1532591.0,1534583.0,1532592.0,1535583.0,1534590.0,1535583.0,3510.0,519.0,2991.0,993.0,1992.0,343.0
60,1624.672975,3.5078377,1,61,1,2,1,2,5,1,50,2.0,0.3251231,1535590.0,1539099.0,1538433.0,0.0,1538433.0,0.0,1536108.0,1538099.0,1536108.0,1539100.0,1538106.0,1539100.0,3509.0,518.0,2992.0,994.0,1991.0,327.0
61,1628.189279,3.5076961,1,62,1,1,2,2,5,1,55,1.0,-0.0065914,1539106.0,1542615.0,1541615.0,1541615.0,0.0,0.0,1539624.0,1541615.0,1539624.0,1542615.0,1541622.0,1542615.0,3509.0,518.0,2991.0,993.0,1991.0,-7.0
62,1631.705327,3.507815,1,63,1,1,1,1,5,1,35,1.0,0.0834928,1542622.0,1546131.0,1545223.0,1545223.0,0.0,0.0,1543140.0,1545131.0,1543141.0,1546131.0,1545138.0,1546131.0,3509.0,519.0,2990.0,993.0,1991.0,85.0
63,1635.22146,3.5078384,1,64,1,2,2,1,3,1,30,2.0,0.0256087,1546138.0,1549647.0,1548682.0,0.0,1548682.0,0.0,1546657.0,1548648.0,1546657.0,1549647.0,1548655.0,1549648.0,3509.0,519.0,2990.0,993.0,1991.0,27.0
64,1638.737764,3.5076625,1,65,1,1,1,2,2,2,50,1.0,0.2251191,1549654.0,1553163.0,1552397.0,1552397.0,0.0,0.0,1550172.0,1552164.0,1550172.0,1553163.0,1552170.0,1553164.0,3509.0,518.0,2991.0,994.0,1992.0,227.0
65,1642.253765,3.5078266,1,66,1,1,2,1,1,2,35,2.0,-0.0997637,1553170.0,1556680.0,1555588.0,0.0,1555588.0,0.0,1553688.0,1555680.0,1553688.0,1556680.0,1555687.0,1556680.0,3510.0,518.0,2992.0,993.0,1992.0,-99.0
66,1645.769926,3.5078426,1,67,1,2,2,2,4,1,45,1.0,0.0501416,1556686.0,1560196.0,1559255.0,1559255.0,0.0,0.0,1557205.0,1559195.0,1557205.0,1560196.0,1559203.0,1560196.0,3510.0,519.0,2991.0,993.0,1990.0,52.0
67,1649.286086,3.507826,1,68,1,1,1,2,5,2,40,1.0,0.033451,1560202.0,1563712.0,1562754.0,1562754.0,0.0,0.0,1560721.0,1562712.0,1560721.0,1563713.0,1562719.0,1563713.0,3510.0,519.0,2992.0,994.0,1991.0,35.0
68,1652.802241,3.5078394,1,69,1,1,1,2,3,1,35,1.0,0.2171555,1563719.0,1567228.0,1566454.0,1566454.0,0.0,0.0,1564237.0,1566228.0,1564237.0,1567228.0,1566235.0,1567228.0,3509.0,518.0,2991.0,993.0,1991.0,219.0
69,1656.318396,3.5078104,1,70,1,1,1,1,5,2,40,1.0,0.2834981,1567235.0,1570744.0,1570036.0,1570036.0,0.0,0.0,1567753.0,1569744.0,1567754.0,1570744.0,1569751.0,1570744.0,3509.0,519.0,2990.0,993.0,1991.0,285.0
70,1659.83454,3.4995018,1,71,1,1,2,2,3,1,30,2.0,-0.2163707,1570751.0,1574252.0,1573044.0,0.0,1573044.0,0.0,1571261.0,1573252.0,1571261.0,1574252.0,1573259.0,1574252.0,3501.0,510.0,2991.0,993.0,1991.0,-215.0
71,1663.342366,3.5078334,1,72,1,1,2,2,5,1,35,2.0,0.3167088,1574259.0,1577769.0,1577093.0,0.0,1577093.0,0.0,1574777.0,1576768.0,1574777.0,1577769.0,1576775.0,1577769.0,3510.0,518.0,2992.0,994.0,1991.0,318.0
72,1666.85855,3.5078092,1,73,1,2,2,2,2,1,40,2.0,0.2584783,1577775.0,1581284.0,1580551.0,0.0,1580551.0,0.0,1578293.0,1580284.0,1578294.0,1581284.0,1580291.0,1581284.0,3509.0,519.0,2990.0,993.0,1991.0,260.0
73,1670.374689,3.5078604,1,74,1,2,2,2,3,2,45,1.0,0.2750124,1581291.0,1584800.0,1584084.0,1584084.0,0.0,0.0,1581810.0,1583801.0,1581810.0,1584800.0,1583808.0,1584801.0,3509.0,519.0,2990.0,993.0,1991.0,276.0
74,1673.891036,3.5076313,1,75,1,1,1,2,2,1,40,1.0,0.03349735557,1584807.0,1588316.0,1587359.0,1587359.0,0.0,0.0,1585325.0,1587317.0,1585325.0,1588317.0,1587324.0,1588317.0,3509.0,518.0,2992.0,993.0,1992.0,35.0
75,1677.406995,3.5078473,1,76,1,1,2,2,1,1,35,2.0,0.3084673,1588323.0,1591833.0,1591149.0,0.0,1591149.0,0.0,1588841.0,1590833.0,1588841.0,1591833.0,1590840.0,1591833.0,3510.0,518.0,2992.0,993.0,1992.0,309.0
76,1680.923287,3.5076978,1,77,1,2,1,2,3,2,40,2.0,0.2251369,1591840.0,1595349.0,1594582.0,0.0,1594582.0,0.0,1592358.0,1594349.0,1592358.0,1595349.0,1594356.0,1595349.0,3509.0,518.0,2991.0,993.0,1991.0,226.0
77,1684.43931,3.5078406,1,78,1,2,1,1,1,2,35,2.0,0.1085604,1595356.0,1598865.0,1597982.0,0.0,1597982.0,0.0,1595874.0,1597865.0,1595874.0,1598866.0,1597872.0,1598866.0,3509.0,518.0,2992.0,994.0,1991.0,110.0
78,1687.955483,3.507825,1,79,1,2,1,1,1,2,40,2.0,0.4418356,1598872.0,1602381.0,1601832.0,0.0,1601832.0,0.0,1599390.0,1601381.0,1599390.0,1602381.0,1601388.0,1602381.0,3509.0,518.0,2991.0,993.0,1991.0,444.0
79,1691.471642,3.5077973,1,80,1,1,2,1,1,1,45,2.0,0.3334088,1602388.0,1605897.0,1605239.0,0.0,1605239.0,0.0,1602906.0,1604897.0,1602907.0,1605897.0,1604904.0,1605897.0,3509.0,519.0,2990.0,993.0,1991.0,335.0
80,1694.987771,3.5078514,1,81,1,2,1,1,4,2,50,2.0,0.3500004,1605904.0,1609413.0,1608772.0,0.0,1608772.0,0.0,1606422.0,1608414.0,1606422.0,1609413.0,1608421.0,1609413.0,3509.0,518.0,2991.0,992.0,1992.0,351.0
81,1698.503933,3.5078352,1,82,1,2,1,2,1,2,45,2.0,0.5084534,1609420.0,1612930.0,1612447.0,0.0,1612447.0,0.0,1609938.0,1611930.0,1609938.0,1612930.0,1611936.0,1612930.0,3510.0,518.0,2992.0,994.0,1992.0,511.0
82,1702.020095,3.5078341,1,83,1,1,2,2,3,2,50,1.0,0.0668228,1612936.0,1616446.0,1615521.0,1615521.0,0.0,0.0,1613454.0,1615445.0,1613455.0,1616446.0,1615453.0,1616446.0,3510.0,519.0,2991.0,993.0,1991.0,68.0
83,1705.536267,3.5078107,1,84,1,2,2,2,3,2,45,2.0,-0.2497281,1616452.0,1619962.0,1618721.0,0.0,1618721.0,0.0,1616971.0,1618962.0,1616971.0,1619962.0,1618969.0,1619962.0,3510.0,519.0,2991.0,993.0,1991.0,-248.0
84,1709.052407,3.5078118,1,85,1,2,2,1,3,2,55,2.0,0.7250791,1619968.0,1623477.0,1623212.0,0.0,1623212.0,0.0,1620487.0,1622478.0,1620487.0,1623478.0,1622485.0,1623478.0,3509.0,519.0,2991.0,993.0,1991.0,727.0
85,1712.568532,3.5078556,1,86,1,1,1,2,1,1,50,1.0,0.3083612,1623485.0,1626994.0,1626311.0,1626311.0,0.0,0.0,1624003.0,1625994.0,1624003.0,1626994.0,1626001.0,1626994.0,3509.0,518.0,2991.0,993.0,1991.0,310.0
86,1716.084724,3.507806,1,87,1,1,1,2,3,1,45,1.0,0.2334589,1627001.0,1630510.0,1629752.0,1629752.0,0.0,0.0,1627519.0,1629511.0,1627519.0,1630510.0,1629517.0,1630510.0,3509.0,518.0,2991.0,993.0,1992.0,235.0
87,1719.600846,3.5078843,1,88,1,1,1,1,5,1,60,2.0,0.2084825,1630517.0,1634026.0,1633244.0,0.0,1633244.0,0.0,1631035.0,1633027.0,1631035.0,1634027.0,1633033.0,1634027.0,3509.0,518.0,2992.0,994.0,1992.0,211.0
88,1723.117174,3.5076978,1,89,1,1,2,1,1,1,65,1.0,0.2668166,1634033.0,1637543.0,1636818.0,1636818.0,0.0,0.0,1634551.0,1636542.0,1634551.0,1637543.0,1636549.0,1637543.0,3510.0,518.0,2992.0,994.0,1991.0,269.0
89,1726.633194,3.5078242,1,90,1,2,2,1,2,2,60,1.0,0.0334995,1637549.0,1641059.0,1640100.0,1640100.0,0.0,0.0,1638067.0,1640059.0,1638067.0,1641059.0,1640066.0,1641059.0,3510.0,518.0,2992.0,993.0,1992.0,34.0
90,1730.149345,3.5078297,1,91,1,2,1,2,2,1,40,2.0,0.3417842,1641065.0,1644574.0,1643926.0,0.0,1643926.0,0.0,1641584.0,1643575.0,1641584.0,1644574.0,1643582.0,1644574.0,3509.0,519.0,2990.0,992.0,1991.0,344.0
91,1733.665503,3.5078407,1,92,1,2,1,2,3,2,45,2.0,0.2417903,1644582.0,1648091.0,1647341.0,0.0,1647341.0,0.0,1645100.0,1647091.0,1645100.0,1648091.0,1647098.0,1648091.0,3509.0,518.0,2991.0,993.0,1991.0,243.0
92,1737.181666,3.507832,1,93,1,1,2,1,4,2,55,1.0,-0.0165963,1648098.0,1651607.0,1650599.0,1650599.0,0.0,0.0,1648615.0,1650606.0,1648615.0,1651607.0,1650615.0,1651607.0,3509.0,517.0,2992.0,992.0,1991.0,-16.0
93,1740.697883,3.5077589,1,94,1,2,2,1,3,1,50,2.0,0.5250792,1651614.0,1655123.0,1654656.0,0.0,1654656.0,0.0,1652132.0,1654124.0,1652132.0,1655123.0,1654130.0,1655123.0,3509.0,518.0,2991.0,993.0,1992.0,526.0
94,1744.213973,3.5078256,1,95,1,1,1,2,2,2,50,1.0,-0.0330911,1655130.0,1658640.0,1657615.0,1657615.0,0.0,0.0,1655648.0,1657639.0,1655648.0,1658640.0,1657646.0,1658640.0,3510.0,518.0,2992.0,994.0,1991.0,-31.0
95,1747.730139,3.5078506,1,96,1,2,2,1,3,2,55,2.0,0.308452,1658646.0,1662156.0,1661472.0,0.0,1661472.0,0.0,1659164.0,1661155.0,1659164.0,1662156.0,1661162.0,1662156.0,3510.0,518.0,2992.0,994.0,1991.0,310.0
96,1751.246462,3.5076487,1,97,1,1,2,1,4,2,60,1.0,0.2338916,1662163.0,1665671.0,1664915.0,1664915.0,0.0,0.0,1662681.0,1664672.0,1662681.0,1665671.0,1664679.0,1665672.0,3508.0,518.0,2990.0,993.0,1991.0,236.0
97,1754.762578,3.5076884,1,98,1,2,1,1,4,2,55,2.0,0.3501247,1665679.0,1669187.0,1668547.0,0.0,1668547.0,0.0,1666197.0,1668188.0,1666197.0,1669187.0,1668195.0,1669188.0,3508.0,518.0,2990.0,993.0,1991.0,352.0
98,1758.278605,3.5078188,1,99,1,2,1,2,4,2,45,2.0,0.4000585,1669194.0,1672704.0,1672112.0,0.0,1672112.0,0.0,1669712.0,1671704.0,1669712.0,1672704.0,1671711.0,1672704.0,3510.0,518.0,2992.0,993.0,1992.0,401.0
99,1761.794759,3.5078245,1,100,1,2,2,2,5,2,50,2.0,0.3001401,1672711.0,1676220.0,1675528.0,0.0,1675528.0,0.0,1673229.0,1675220.0,1673229.0,1676220.0,1675227.0,1676220.0,3509.0,518.0,2991.0,993.0,1991.0,301.0
100,6596.940144,3.7578513,2,1,1,2,1,1,3,2,15,2.0,0.3337043,6507837.0,6511595.0,6510937.0,0.0,6510937.0,0.0,6508604.0,6510595.0,6508604.0,6511596.0,6510602.0,6511596.0,3758.0,767.0,2992.0,994.0,1991.0,335.0
101,6600.70633,3.5079066,2,2,1,2,1,2,4,1,65,1.0,0.4752736,6511602.0,6515111.0,6514595.0,6514595.0,0.0,0.0,6512120.0,6514111.0,6512121.0,6515111.0,6514118.0,6515111.0,3509.0,519.0,2990.0,993.0,1991.0,477.0
102,6604.222554,3.5079253,2,3,1,1,2,1,5,1,20,2.0,0.4087105,6515118.0,6518628.0,6518045.0,0.0,6518045.0,0.0,6515636.0,6517627.0,6515637.0,6518628.0,6517634.0,6518628.0,3510.0,519.0,2991.0,994.0,1991.0,411.0
103,6607.738809,3.5078938,2,4,1,2,1,1,3,2,25,2.0,0.0919796,6518634.0,6522144.0,6521244.0,0.0,6521244.0,0.0,6519152.0,6521143.0,6519153.0,6522144.0,6521150.0,6522144.0,3510.0,519.0,2991.0,994.0,1991.0,94.0
104,6611.255031,3.5164147,2,5,1,1,1,1,5,1,30,2.0,0.2758424,6522151.0,6525669.0,6524953.0,0.0,6524953.0,0.0,6522679.0,6524669.0,6522680.0,6525670.0,6524675.0,6525671.0,3518.0,529.0,2990.0,996.0,1990.0,278.0
105,6614.788024,3.5078334,2,6,1,1,2,2,3,2,60,1.0,0.3670804,6525685.0,6529193.0,6528568.0,6528568.0,0.0,0.0,6526202.0,6528193.0,6526202.0,6529193.0,6528200.0,6529193.0,3508.0,517.0,2991.0,993.0,1991.0,368.0
106,6618.304175,3.5162412,2,7,1,2,1,1,5,1,35,2.0,0.3774949,6529199.0,6532717.0,6532096.0,0.0,6532096.0,0.0,6529717.0,6531709.0,6529717.0,6532717.0,6531716.0,6532717.0,3518.0,518.0,3000.0,1001.0,1992.0,380.0
107,6625.919921,3.5078698,2,8,1,2,1,1,2,2,40,1.0,0.3835376,6536815.0,6540324.0,6539717.0,6539717.0,0.0,0.0,6537334.0,6539325.0,6537334.0,6540324.0,6539331.0,6540324.0,3509.0,519.0,2990.0,993.0,1991.0,386.0
108,6629.436156,3.5078862,2,9,1,1,1,1,3,1,35,1.0,0.2502179,6540331.0,6543840.0,6543100.0,6543100.0,0.0,0.0,6540849.0,6542841.0,6540849.0,6543841.0,6542848.0,6543841.0,3509.0,518.0,2992.0,993.0,1992.0,252.0
109,6632.952385,3.5079003,2,10,1,1,1,2,2,2,55,1.0,0.2508944,6543848.0,6547357.0,6546617.0,6546617.0,0.0,0.0,6544365.0,6546357.0,6544365.0,6547357.0,6546364.0,6547357.0,3509.0,517.0,2992.0,993.0,1992.0,253.0
110,6636.468619,3.5078715,2,11,1,1,2,1,4,2,30,1.0,-0.0494001,6547364.0,6550873.0,6549833.0,6549833.0,0.0,0.0,6547882.0,6549874.0,6547882.0,6550873.0,6549880.0,6550873.0,3509.0,518.0,2991.0,993.0,1992.0,-47.0
111,6639.98482,3.5079233,2,12,1,1,1,2,1,2,50,1.0,0.3668542,6550880.0,6554389.0,6553765.0,6553765.0,0.0,0.0,6551398.0,6553390.0,6551398.0,6554389.0,6553396.0,6554390.0,3509.0,518.0,2991.0,994.0,1992.0,369.0
112,6643.501052,3.5079032,2,13,1,1,2,1,3,1,25,2.0,0.3334852,6554396.0,6557906.0,6557248.0,0.0,6557248.0,0.0,6554914.0,6556906.0,6554914.0,6557906.0,6556913.0,6557906.0,3510.0,518.0,2992.0,993.0,1992.0,335.0
113,6647.017289,3.5078852,2,14,1,1,1,1,1,2,30,2.0,0.3585005,6557912.0,6561422.0,6560788.0,0.0,6560788.0,0.0,6558430.0,6560422.0,6558430.0,6561422.0,6560429.0,6561422.0,3510.0,518.0,2992.0,993.0,1992.0,359.0
114,6650.533505,3.5080212,2,15,1,1,2,1,2,2,35,2.0,0.1084715,6561429.0,6564938.0,6564055.0,0.0,6564055.0,0.0,6561947.0,6563938.0,6561947.0,6564938.0,6563945.0,6564939.0,3509.0,518.0,2991.0,994.0,1991.0,110.0
115,6654.049765,3.507924,2,16,1,1,2,1,5,1,40,2.0,0.4084925,6564945.0,6568455.0,6567871.0,0.0,6567871.0,0.0,6565463.0,6567454.0,6565463.0,6568455.0,6567461.0,6568455.0,3510.0,518.0,2992.0,994.0,1991.0,410.0
116,6657.566112,3.5077962,2,17,1,2,2,2,2,2,45,2.0,0.3085506,6568461.0,6571971.0,6571287.0,0.0,6571287.0,0.0,6568979.0,6570970.0,6568979.0,6571971.0,6570977.0,6571972.0,3510.0,518.0,2992.0,995.0,1991.0,310.0
117,6661.082373,3.5077915,2,18,1,1,1,2,3,1,50,1.0,0.2917642,6571978.0,6575487.0,6574787.0,6574787.0,0.0,0.0,6572496.0,6574487.0,6572496.0,6575487.0,6574494.0,6575487.0,3509.0,518.0,2991.0,993.0,1991.0,293.0
118,6664.598473,3.5078908,2,19,1,2,2,1,4,1,45,2.0,0.2834991,6575494.0,6579003.0,6578295.0,0.0,6578295.0,0.0,6576012.0,6578003.0,6576012.0,6579003.0,6578010.0,6579003.0,3509.0,518.0,2991.0,993.0,1991.0,285.0
119,6668.114694,3.5078458,2,20,1,2,1,1,3,1,50,1.0,0.2917192,6579010.0,6582519.0,6581819.0,6581819.0,0.0,0.0,6579528.0,6581519.0,6579528.0,6582519.0,6581526.0,6582519.0,3509.0,518.0,2991.0,993.0,1991.0,293.0
120,6671.630874,3.5078153,2,21,1,1,1,2,1,2,45,1.0,0.1501291,6582526.0,6586035.0,6585194.0,6585194.0,0.0,0.0,6583044.0,6585036.0,6583044.0,6586035.0,6585042.0,6586035.0,3509.0,518.0,2991.0,993.0,1992.0,152.0
121,6675.147029,3.5078745,2,22,1,1,2,2,1,1,40,2.0,-0.0579751,6586042.0,6589551.0,6588502.0,0.0,6588502.0,0.0,6586560.0,6588552.0,6586560.0,6589552.0,6588558.0,6589552.0,3509.0,518.0,2992.0,994.0,1992.0,-56.0
122,6678.663176,3.5078158,2,23,1,2,2,1,5,1,45,1.0,0.1751238,6589558.0,6593068.0,6592251.0,6592251.0,0.0,0.0,6590076.0,6592067.0,6590076.0,6593068.0,6592074.0,6593068.0,3510.0,518.0,2992.0,994.0,1991.0,177.0
123,6682.179345,3.507823,2,24,1,1,1,1,3,2,40,1.0,0.2668163,6593074.0,6596584.0,6595859.0,6595859.0,0.0,0.0,6593592.0,6595584.0,6593593.0,6596584.0,6595590.0,6596585.0,3510.0,519.0,2991.0,995.0,1992.0,269.0
124,6685.695627,3.5076765,2,25,1,2,1,1,1,1,35,1.0,0.2667512,6596591.0,6600099.0,6599375.0,6599375.0,0.0,0.0,6597109.0,6599100.0,6597109.0,6600100.0,6599107.0,6600100.0,3508.0,518.0,2991.0,993.0,1991.0,268.0
125,6689.211878,3.507593822,2,26,1,2,2,2,2,1,45,2.0,0.2001611,6600107.0,6603616.0,6602824.0,0.0,6602824.0,0.0,6600625.0,6602616.0,6600625.0,6603616.0,6602623.0,6603616.0,3509.0,518.0,2991.0,993.0,1991.0,201.0
126,6692.727806,3.5078057,2,27,1,1,1,2,3,1,50,1.0,0.250113,6603623.0,6607132.0,6606390.0,6606390.0,0.0,0.0,6604141.0,6606132.0,6604141.0,6607132.0,6606139.0,6607132.0,3509.0,518.0,2991.0,993.0,1991.0,251.0
127,6696.243969,3.5078121,2,28,1,2,2,1,3,1,30,2.0,0.2168223,6607139.0,6610648.0,6609874.0,0.0,6609874.0,0.0,6607657.0,6609649.0,6607657.0,6610648.0,6609655.0,6610648.0,3509.0,518.0,2991.0,993.0,1992.0,219.0
128,6699.760111,3.5078313,2,29,1,2,2,1,4,2,35,2.0,0.0335423,6610655.0,6614165.0,6613206.0,0.0,6613206.0,0.0,6611173.0,6613164.0,6611173.0,6614165.0,6613172.0,6614165.0,3510.0,518.0,2992.0,993.0,1991.0,34.0
129,6703.276265,3.5077901,2,30,1,2,1,2,5,1,45,1.0,0.3334618,6614171.0,6617681.0,6617022.0,6617022.0,0.0,0.0,6614689.0,6616680.0,6614689.0,6617681.0,6616687.0,6617681.0,3510.0,518.0,2992.0,994.0,1991.0,335.0
130,6706.792487,3.5077419,2,31,1,2,2,1,1,2,40,2.0,0.2920751,6617687.0,6621196.0,6620498.0,0.0,6620498.0,0.0,6618206.0,6620197.0,6618206.0,6621196.0,6620204.0,6621196.0,3509.0,519.0,2990.0,992.0,1991.0,294.0
131,6710.308533,3.5078319,2,32,1,2,2,2,2,1,40,2.0,0.2751271,6621203.0,6624713.0,6623996.0,0.0,6623996.0,0.0,6621722.0,6623713.0,6621722.0,6624713.0,6623720.0,6624713.0,3510.0,519.0,2991.0,993.0,1991.0,276.0
132,6713.824693,3.5078386,2,33,1,1,2,1,2,2,45,2.0,0.4999965,6624720.0,6628229.0,6627737.0,0.0,6627737.0,0.0,6625237.0,6627229.0,6625237.0,6628229.0,6627236.0,6628229.0,3509.0,517.0,2992.0,993.0,1992.0,501.0
133,6717.340856,3.6079868,2,34,1,1,2,2,3,2,45,2.0,0.5167868,6628236.0,6631845.0,6631370.0,0.0,6631370.0,0.0,6628854.0,6630846.0,6628854.0,6631845.0,6630852.0,6631846.0,3609.0,618.0,2991.0,994.0,1992.0,518.0
134,6720.957135,3.5076626,2,35,1,2,2,1,5,2,50,1.0,0.3168076,6631852.0,6635361.0,6634687.0,6634687.0,0.0,0.0,6632370.0,6634362.0,6632370.0,6635362.0,6634368.0,6635362.0,3509.0,518.0,2992.0,994.0,1992.0,319.0
135,6724.473251,3.507960456,2,36,1,2,1,1,3,1,45,1.0,0.3584488,6635368.0,6638878.0,6638244.0,6638244.0,0.0,0.0,6635886.0,6637877.0,6635886.0,6638878.0,6637884.0,6638878.0,3510.0,518.0,2992.0,994.0,1991.0,360.0
136,6727.989456,3.5076861,2,37,1,2,2,1,1,2,40,2.0,0.5088485,6638884.0,6642393.0,6641911.0,0.0,6641911.0,0.0,6639402.0,6641394.0,6639402.0,6642393.0,6641400.0,6642393.0,3509.0,518.0,2991.0,993.0,1992.0,511.0
137,6731.505475,3.507818,2,38,1,2,1,2,5,2,50,1.0,0.3251047,6642400.0,6645909.0,6645244.0,6645244.0,0.0,0.0,6642919.0,6644910.0,6642919.0,6645909.0,6644917.0,6645909.0,3509.0,519.0,2990.0,992.0,1991.0,327.0
138,6735.02163,3.5078299,2,39,1,2,1,1,2,1,45,1.0,0.375158,6645916.0,6649426.0,6648809.0,6648809.0,0.0,0.0,6646434.0,6648426.0,6646434.0,6649426.0,6648433.0,6649426.0,3510.0,518.0,2992.0,993.0,1992.0,376.0
139,6738.537775,3.5078308,2,40,1,1,2,1,2,2,40,2.0,0.2084892,6649433.0,6652942.0,6652159.0,0.0,6652159.0,0.0,6649950.0,6651942.0,6649951.0,6652942.0,6651949.0,6652943.0,3509.0,518.0,2991.0,994.0,1992.0,210.0
140,6742.05408,3.5076741,2,41,1,2,1,2,4,2,45,2.0,0.3085354,6652949.0,6656458.0,6655775.0,0.0,6655775.0,0.0,6653468.0,6655459.0,6653468.0,6656458.0,6655465.0,6656458.0,3509.0,519.0,2990.0,993.0,1991.0,310.0
141,6745.57011,3.5078214,2,42,1,2,2,2,4,1,50,2.0,0.3334768,6656465.0,6659975.0,6659316.0,0.0,6659316.0,0.0,6656983.0,6658974.0,6656983.0,6659975.0,6658981.0,6659975.0,3510.0,518.0,2992.0,994.0,1991.0,335.0
142,6749.086261,3.5078232,2,43,1,1,2,1,1,1,45,2.0,0.3169787,6659981.0,6663490.0,6662816.0,0.0,6662816.0,0.0,6660499.0,6662490.0,6660499.0,6663490.0,6662497.0,6663490.0,3509.0,518.0,2991.0,993.0,1991.0,319.0
143,6752.602417,3.5078066,2,44,1,2,2,2,1,1,55,1.0,0.2416539,6663497.0,6667006.0,6666257.0,6666257.0,0.0,0.0,6664016.0,6666007.0,6664016.0,6667006.0,6666014.0,6667006.0,3509.0,519.0,2990.0,992.0,1991.0,243.0
144,6756.118549,3.5078156,2,45,1,2,2,2,4,2,50,1.0,0.4251164,6667013.0,6670522.0,6669956.0,6669956.0,0.0,0.0,6667531.0,6669523.0,6667531.0,6670523.0,6669530.0,6670523.0,3509.0,518.0,2992.0,993.0,1992.0,426.0
145,6759.634704,3.5078314,2,46,1,1,2,2,3,2,45,2.0,0.3334432,6670529.0,6674039.0,6673381.0,0.0,6673381.0,0.0,6671047.0,6673039.0,6671047.0,6674039.0,6673046.0,6674039.0,3510.0,518.0,2992.0,993.0,1992.0,335.0
146,6763.15087,3.5078093,2,47,1,2,2,1,3,1,50,2.0,0.0668302,6674046.0,6677555.0,6676630.0,0.0,6676630.0,0.0,6674564.0,6676556.0,6674564.0,6677555.0,6676562.0,6677555.0,3509.0,518.0,2991.0,993.0,1992.0,68.0
147,6766.667012,3.5078553,2,48,1,1,2,1,4,2,55,1.0,0.4084496,6677562.0,6681071.0,6680488.0,6680488.0,0.0,0.0,6678080.0,6680071.0,6678080.0,6681072.0,6680078.0,6681072.0,3509.0,518.0,2992.0,994.0,1991.0,410.0
148,6770.183224,3.5077954,2,49,1,2,2,2,4,1,50,1.0,0.2501367,6681078.0,6684588.0,6683846.0,6683846.0,0.0,0.0,6681596.0,6683587.0,6681596.0,6684588.0,6683594.0,6684588.0,3510.0,518.0,2992.0,994.0,1991.0,252.0
149,6773.69935,3.5078134,2,50,1,2,1,2,5,2,45,2.0,0.3751145,6684594.0,6688103.0,6687487.0,0.0,6687487.0,0.0,6685112.0,6687103.0,6685113.0,6688103.0,6687110.0,6688103.0,3509.0,519.0,2990.0,993.0,1991.0,377.0
150,6777.215498,3.5078236,2,51,1,2,1,1,1,2,50,1.0,0.4250118,6688110.0,6691619.0,6691054.0,6691054.0,0.0,0.0,6688629.0,6690620.0,6688629.0,6691619.0,6690627.0,6691619.0,3509.0,519.0,2990.0,992.0,1991.0,427.0
151,6780.73165,3.5078314,2,52,1,2,2,2,5,2,50,2.0,0.250171,6691626.0,6695136.0,6694394.0,0.0,6694394.0,0.0,6692145.0,6694136.0,6692145.0,6695136.0,6694143.0,6695136.0,3510.0,519.0,2991.0,993.0,1991.0,251.0
152,6784.247938,3.5076967,2,53,1,2,2,2,5,1,55,1.0,0.5835103,6695143.0,6698652.0,6698244.0,6698244.0,0.0,0.0,6695660.0,6697652.0,6695661.0,6698652.0,6697659.0,6698652.0,3509.0,518.0,2991.0,993.0,1992.0,585.0
153,6787.763966,3.5078291,2,54,1,2,1,1,5,2,45,1.0,0.3500991,6698659.0,6702168.0,6701526.0,6701526.0,0.0,0.0,6699177.0,6701168.0,6699177.0,6702168.0,6701175.0,6702168.0,3509.0,518.0,2991.0,993.0,1991.0,351.0
154,6791.280121,3.5078307,2,55,1,2,2,2,4,2,50,2.0,0.3168117,6702175.0,6705684.0,6705009.0,0.0,6705009.0,0.0,6702693.0,6704684.0,6702693.0,6705685.0,6704691.0,6705685.0,3509.0,518.0,2992.0,994.0,1991.0,318.0
155,6794.796417,3.5076983,2,56,1,2,2,2,4,1,55,2.0,0.2501253,6705691.0,6709200.0,6708459.0,0.0,6708459.0,0.0,6706209.0,6708200.0,6706209.0,6709200.0,6708207.0,6709200.0,3509.0,518.0,2991.0,993.0,1991.0,252.0
156,6798.312442,3.9411041,2,57,1,1,2,2,5,2,60,2.0,0.6419285,6709207.0,6713150.0,6712800.0,0.0,6712800.0,0.0,6710158.0,6712149.0,6710158.0,6713150.0,6712157.0,6713150.0,3943.0,951.0,2992.0,993.0,1991.0,643.0
157,6802.261876,3.5078258,2,58,1,2,1,2,1,2,65,1.0,0.31728,6713156.0,6716666.0,6715992.0,6715992.0,0.0,0.0,6713675.0,6715666.0,6713675.0,6716666.0,6715673.0,6716666.0,3510.0,519.0,2991.0,993.0,1991.0,319.0
158,6805.778034,3.5078121,2,59,1,1,2,2,4,2,60,1.0,-0.0064596,6716673.0,6720182.0,6719182.0,6719182.0,0.0,0.0,6717191.0,6719182.0,6717191.0,6720182.0,6719189.0,6720182.0,3509.0,518.0,2991.0,993.0,1991.0,-7.0
159,6809.294165,3.5078389,2,60,1,1,1,2,3,2,55,1.0,0.1085117,6720189.0,6723698.0,6722815.0,6722815.0,0.0,0.0,6720707.0,6722698.0,6720707.0,6723698.0,6722705.0,6723698.0,3509.0,518.0,2991.0,993.0,1991.0,110.0
160,6812.810324,3.5078825,2,61,1,1,1,2,5,2,50,1.0,0.3168346,6723705.0,6727214.0,6726539.0,6726539.0,0.0,0.0,6724223.0,6726215.0,6724223.0,6727214.0,6726221.0,6727214.0,3509.0,518.0,2991.0,993.0,1992.0,318.0
161,6816.326464,3.5078542,2,62,1,2,1,2,5,2,45,2.0,0.5504128,6727221.0,6730730.0,6730290.0,0.0,6730290.0,0.0,6727739.0,6729731.0,6727739.0,6730731.0,6729737.0,6730731.0,3509.0,518.0,2992.0,994.0,1992.0,553.0
162,6819.842651,3.5079204,2,63,1,2,1,2,5,2,50,1.0,0.3167709,6730737.0,6734247.0,6733572.0,6733572.0,0.0,0.0,6731255.0,6733246.0,6731255.0,6734247.0,6733253.0,6734247.0,3510.0,518.0,2992.0,994.0,1991.0,319.0
163,6823.358819,3.5078151,2,64,1,1,1,1,2,2,40,1.0,-0.090955,6734253.0,6737763.0,6736681.0,6736681.0,0.0,0.0,6734771.0,6736763.0,6734772.0,6737763.0,6736770.0,6737764.0,3510.0,519.0,2991.0,994.0,1992.0,-89.0
164,6826.875104,3.5076869,2,65,1,1,1,2,5,2,45,1.0,-0.0065572,6737770.0,6741278.0,6740279.0,6740279.0,0.0,0.0,6738288.0,6740279.0,6738288.0,6741279.0,6740286.0,6741279.0,3508.0,518.0,2991.0,993.0,1991.0,-7.0
165,6830.391123,3.5078226,2,66,1,2,2,1,1,2,35,2.0,0.2584306,6741285.0,6744795.0,6744062.0,0.0,6744062.0,0.0,6741804.0,6743795.0,6741804.0,6744795.0,6743802.0,6744795.0,3510.0,519.0,2991.0,993.0,1991.0,260.0
166,6833.90728,3.5078388,2,67,1,1,2,1,3,2,40,2.0,-0.1997362,6744802.0,6748311.0,6747120.0,0.0,6747120.0,0.0,6745319.0,6747311.0,6745320.0,6748311.0,6747318.0,6748311.0,3509.0,518.0,2991.0,993.0,1992.0,-198.0
167,6837.423441,3.5078201,2,68,1,2,1,1,2,1,45,2.0,0.4667198,6748318.0,6751827.0,6751302.0,0.0,6751302.0,0.0,6748836.0,6750828.0,6748836.0,6751828.0,6750834.0,6751828.0,3509.0,518.0,2992.0,994.0,1992.0,468.0
168,6840.939783,3.5076324,2,69,1,1,1,2,1,2,40,2.0,0.3750517,6751834.0,6755344.0,6754727.0,0.0,6754727.0,0.0,6752352.0,6754343.0,6752352.0,6755344.0,6754350.0,6755344.0,3510.0,518.0,2992.0,994.0,1991.0,377.0
169,6844.455889,3.5077054,2,70,1,1,2,2,3,1,45,2.0,0.3334439,6755350.0,6758860.0,6758201.0,0.0,6758201.0,0.0,6755868.0,6757859.0,6755868.0,6758860.0,6757866.0,6758860.0,3510.0,518.0,2992.0,994.0,1991.0,335.0
170,6847.971908,3.5078314,2,71,1,2,1,2,2,1,50,1.0,0.2334563,6758866.0,6762375.0,6761617.0,6761617.0,0.0,0.0,6759385.0,6761376.0,6759385.0,6762375.0,6761383.0,6762375.0,3509.0,519.0,2990.0,992.0,1991.0,234.0
171,6851.488041,3.5078661,2,72,1,1,1,1,1,1,50,1.0,0.3922598,6762382.0,6765891.0,6765293.0,6765293.0,0.0,0.0,6762901.0,6764892.0,6762901.0,6765891.0,6764899.0,6765892.0,3509.0,519.0,2990.0,993.0,1991.0,394.0
172,6855.004237,3.5078128,2,73,1,1,1,1,2,2,45,2.0,0.3250548,6765899.0,6769408.0,6768741.0,0.0,6768741.0,0.0,6766416.0,6768408.0,6766416.0,6769408.0,6768415.0,6769408.0,3509.0,517.0,2992.0,993.0,1992.0,326.0
173,6858.520383,3.5079358,2,74,1,1,2,2,5,2,45,2.0,0.1751486,6769415.0,6772924.0,6772107.0,0.0,6772107.0,0.0,6769933.0,6771925.0,6769933.0,6772924.0,6771931.0,6772924.0,3509.0,518.0,2991.0,993.0,1992.0,176.0
174,6862.036514,3.50784,2,75,1,1,1,2,2,1,50,1.0,0.0418352,6772931.0,6776440.0,6775491.0,6775491.0,0.0,0.0,6773449.0,6775440.0,6773449.0,6776440.0,6775447.0,6776441.0,3509.0,518.0,2991.0,994.0,1991.0,44.0
175,6865.552671,3.5078673,2,76,1,2,2,2,5,2,45,2.0,0.0500363,6776447.0,6779957.0,6779015.0,0.0,6779015.0,0.0,6776965.0,6778956.0,6776965.0,6779957.0,6778964.0,6779957.0,3510.0,518.0,2992.0,993.0,1991.0,51.0
176,6869.068868,3.5078133,2,77,1,2,2,2,3,1,50,2.0,0.066825,6779963.0,6783472.0,6782547.0,0.0,6782547.0,0.0,6780481.0,6782473.0,6780481.0,6783472.0,6782479.0,6783472.0,3509.0,518.0,2991.0,993.0,1992.0,68.0
177,6872.585031,3.5078101,2,78,1,2,2,2,3,1,55,2.0,0.1333336,6783479.0,6786988.0,6786131.0,0.0,6786131.0,0.0,6783998.0,6785989.0,6783998.0,6786988.0,6785996.0,6786989.0,3509.0,519.0,2990.0,993.0,1991.0,135.0
178,6876.101174,3.5078369,2,79,1,2,2,1,5,2,50,2.0,0.3834497,6786995.0,6790504.0,6789897.0,0.0,6789897.0,0.0,6787513.0,6789505.0,6787513.0,6790505.0,6789512.0,6790505.0,3509.0,518.0,2992.0,993.0,1992.0,385.0
179,6879.617348,3.5078247,2,80,1,2,1,1,5,1,55,1.0,0.4168263,6790511.0,6794021.0,6793446.0,6793446.0,0.0,0.0,6791029.0,6793021.0,6791029.0,6794021.0,6793028.0,6794021.0,3510.0,518.0,2992.0,993.0,1992.0,418.0
180,6883.133492,3.5078239,2,81,1,2,2,2,1,1,60,1.0,0.2084586,6794028.0,6797537.0,6796753.0,6796753.0,0.0,0.0,6794545.0,6796538.0,6794546.0,6797537.0,6796544.0,6797537.0,3509.0,518.0,2991.0,993.0,1993.0,209.0
181,6886.649649,3.5078286,2,82,1,2,1,1,4,1,50,n/a,n/a,6797544.0,6801053.0,0.0,0.0,0.0,0.0,6798062.0,6800053.0,6798062.0,6801054.0,6800060.0,6801054.0,3509.0,518.0,2992.0,994.0,1991.0,-6800060.0
182,6890.16577,3.6078653,2,83,1,1,2,2,3,2,55,2.0,0.2751953,6801060.0,6804670.0,6803953.0,0.0,6803953.0,0.0,6801678.0,6803669.0,6801678.0,6804670.0,6803676.0,6804670.0,3610.0,618.0,2992.0,994.0,1991.0,277.0
183,6893.782169,3.5076126,2,84,1,1,1,1,3,2,50,1.0,0.3837664,6804676.0,6808185.0,6807577.0,6807577.0,0.0,0.0,6805194.0,6807185.0,6805194.0,6808185.0,6807192.0,6808185.0,3509.0,518.0,2991.0,993.0,1991.0,385.0
184,6897.298091,3.5078319,2,85,1,2,1,1,3,2,45,1.0,0.3918971,6808192.0,6811701.0,6811102.0,6811102.0,0.0,0.0,6808711.0,6810702.0,6808711.0,6811702.0,6810708.0,6811702.0,3509.0,519.0,2991.0,994.0,1991.0,394.0
185,6900.814274,3.6911285,2,86,1,2,1,1,4,1,40,1.0,0.3001203,6811708.0,6815401.0,6814710.0,6814710.0,0.0,0.0,6812410.0,6814401.0,6812410.0,6815401.0,6814408.0,6815401.0,3693.0,702.0,2991.0,993.0,1991.0,302.0
186,6904.513738,3.5078112,2,87,1,2,2,2,2,1,60,1.0,0.2834496,6815408.0,6818917.0,6818209.0,6818209.0,0.0,0.0,6815926.0,6817917.0,6815926.0,6818917.0,6817924.0,6818917.0,3509.0,518.0,2991.0,993.0,1991.0,285.0
187,6908.029886,3.507963,2,88,1,2,1,2,4,1,55,1.0,0.2418203,6818924.0,6822433.0,6821684.0,6821684.0,0.0,0.0,6819442.0,6821434.0,6819442.0,6822433.0,6821440.0,6822434.0,3509.0,518.0,2991.0,994.0,1992.0,244.0
188,6911.546162,3.5076948,2,89,1,2,2,2,3,1,50,1.0,0.1834914,6822440.0,6825949.0,6825142.0,6825142.0,0.0,0.0,6822958.0,6824950.0,6822958.0,6825950.0,6824956.0,6825950.0,3509.0,518.0,2992.0,994.0,1992.0,186.0
189,6915.062211,3.5078488,2,90,1,2,2,1,3,1,35,2.0,0.1084851,6825956.0,6829466.0,6828582.0,0.0,6828582.0,0.0,6826474.0,6828466.0,6826474.0,6829466.0,6828472.0,6829466.0,3510.0,518.0,2992.0,994.0,1992.0,110.0
190,6918.578377,3.5078217,2,91,1,1,1,2,1,2,45,1.0,0.2172241,6829472.0,6832982.0,6832207.0,6832207.0,0.0,0.0,6829991.0,6831982.0,6829991.0,6832982.0,6831989.0,6832982.0,3510.0,519.0,2991.0,993.0,1991.0,218.0
191,6922.09453,3.5078422,2,92,1,2,1,2,1,1,40,2.0,0.3667923,6832988.0,6836498.0,6835873.0,0.0,6835873.0,0.0,6833507.0,6835498.0,6833507.0,6836498.0,6835505.0,6836498.0,3510.0,519.0,2991.0,993.0,1991.0,368.0
192,6925.610705,3.5078272,2,93,1,1,1,2,4,2,45,1.0,0.1588795,6836505.0,6840014.0,6839181.0,6839181.0,0.0,0.0,6837023.0,6839014.0,6837023.0,6840014.0,6839021.0,6840014.0,3509.0,518.0,2991.0,993.0,1991.0,160.0
193,6929.126985,3.5078195,2,94,1,2,1,1,3,2,40,2.0,0.2168052,6840021.0,6843530.0,6842755.0,0.0,6842755.0,0.0,6840539.0,6842530.0,6840540.0,6843530.0,6842537.0,6843530.0,3509.0,519.0,2990.0,993.0,1991.0,218.0
194,6932.643027,3.5078273,2,95,1,2,1,1,2,1,45,1.0,0.5417444,6843537.0,6847046.0,6846597.0,6846597.0,0.0,0.0,6844055.0,6846047.0,6844055.0,6847046.0,6846053.0,6847046.0,3509.0,518.0,2991.0,993.0,1992.0,544.0
195,6936.159188,3.5078223,2,96,1,2,2,1,5,2,40,2.0,0.3001251,6847053.0,6850563.0,6849871.0,0.0,6849871.0,0.0,6847571.0,6849563.0,6847571.0,6850563.0,6849569.0,6850563.0,3510.0,518.0,2992.0,994.0,1992.0,302.0
196,6939.675473,3.507693,2,97,1,2,2,2,2,2,40,2.0,0.174971,6850569.0,6854079.0,6853262.0,0.0,6853262.0,0.0,6851087.0,6853078.0,6851087.0,6854079.0,6853086.0,6854079.0,3510.0,518.0,2992.0,993.0,1991.0,176.0
197,6943.191491,3.5078274,2,98,1,2,1,2,5,1,45,2.0,0.4166437,6854085.0,6857595.0,6857020.0,0.0,6857020.0,0.0,6854604.0,6856595.0,6854604.0,6857595.0,6856602.0,6857596.0,3510.0,519.0,2991.0,994.0,1991.0,418.0
198,6946.707778,3.5077986,2,99,1,2,1,1,3,2,45,2.0,0.2415897443,6857602.0,6861112.0,6860361.0,0.0,6860361.0,0.0,6858120.0,6860111.0,6858120.0,6861112.0,6860118.0,6861112.0,3510.0,518.0,2992.0,994.0,1991.0,243.0
199,6950.223821,3.5078293,2,100,1,1,2,1,4,2,50,1.0,0.2667949,6861118.0,6864627.0,6863902.0,6863902.0,0.0,0.0,6861636.0,6863627.0,6861636.0,6864627.0,6863634.0,6864627.0,3509.0,518.0,2991.0,993.0,1991.0,268.0
