,onset,duration,run_number,trial_number,task,ext_mot_pos,ext_mot_ver_dir,staircase_num,fix_off_prct,trial_type,ext_mot_ori,direction_report,response_duration,trial_onset,trial_offset,button_press_onset,button_left,button_right,fix_break,motion_onset,motion_offset,fixation_onset,fixation_offset,response_onset,response_offset,trial_duration,fix_check_duration,fixation_duration,response_duration,motion_duration,reaction_time
0,378.0352727,3.9078785,1,1,1,2,1,1,5,2,15,1.0,0.4004906,348332.0,352240.0,351649.0,351649.0,0.0,0.0,349248.0,351241.0,349249.0,352242.0,351247.0,352243.0,3908.0,917.0,2993.0,996.0,1993.0,402.0
1,381.9599769,3.5077575,1,2,1,1,1,2,2,1,65,2.0,0.3835904,352258.0,355764.0,355157.0,0.0,355157.0,0.0,352774.0,354765.0,352774.0,355765.0,354771.0,355765.0,3506.0,516.0,2991.0,994.0,1991.0,386.0
2,385.476196,3.507796,1,3,1,2,1,1,4,2,20,2.0,0.2836154,355772.0,359281.0,358573.0,0.0,358573.0,0.0,356289.0,358281.0,356289.0,359281.0,358288.0,359281.0,3509.0,517.0,2992.0,993.0,1992.0,285.0
3,388.9923265,3.5079116,1,4,1,2,2,2,3,2,60,2.0,0.3669886,359288.0,362797.0,362172.0,0.0,362172.0,0.0,359805.0,361798.0,359806.0,362797.0,361804.0,362797.0,3509.0,518.0,2991.0,993.0,1993.0,368.0
4,392.5085611,3.5163994,1,5,1,1,1,1,1,2,15,1.0,0.2842146,362804.0,366323.0,365615.0,365615.0,0.0,0.0,363331.0,365322.0,363332.0,366324.0,365329.0,366325.0,3519.0,528.0,2992.0,996.0,1991.0,286.0
5,396.0414668,3.5079073,1,6,1,2,1,2,5,2,55,2.0,0.2421301,366339.0,369846.0,369096.0,0.0,369096.0,0.0,366855.0,368847.0,366855.0,369846.0,368853.0,369847.0,3507.0,516.0,2991.0,994.0,1992.0,243.0
6,399.5577242,3.5079021,1,7,1,1,1,2,3,2,50,2.0,0.142633,369853.0,373362.0,372514.0,0.0,372514.0,0.0,370371.0,372363.0,370371.0,373363.0,372369.0,373363.0,3509.0,518.0,2992.0,994.0,1992.0,145.0
7,403.0740028,3.5078889,1,8,1,1,1,2,2,1,45,2.0,0.3001247,373369.0,376879.0,376187.0,0.0,376187.0,0.0,373887.0,375879.0,373887.0,376879.0,375885.0,376879.0,3510.0,518.0,2992.0,994.0,1992.0,302.0
8,406.590221,3.5079004,1,9,1,2,2,1,2,1,20,1.0,0.2252463,376885.0,380395.0,379628.0,379628.0,0.0,0.0,377403.0,379394.0,377403.0,380395.0,379402.0,380395.0,3510.0,518.0,2992.0,993.0,1991.0,226.0
9,410.1064523,3.5079173,1,10,1,1,2,1,5,2,25,2.0,-0.1329055,380402.0,383911.0,382787.0,0.0,382787.0,0.0,380920.0,382911.0,380920.0,383912.0,382918.0,383912.0,3509.0,518.0,2992.0,994.0,1991.0,-131.0
10,413.6226882,3.5078815,1,11,1,1,1,2,4,1,40,2.0,0.3832934,383918.0,387428.0,386819.0,0.0,386819.0,0.0,384436.0,386427.0,384436.0,387428.0,386434.0,387428.0,3510.0,518.0,2992.0,994.0,1991.0,385.0
11,417.1390468,3.5077822,1,12,1,2,1,2,5,2,35,2.0,0.2337731,387434.0,390944.0,390186.0,0.0,390186.0,0.0,387952.0,389943.0,387952.0,390944.0,389951.0,390944.0,3510.0,518.0,2992.0,993.0,1991.0,235.0
12,420.6718372,3.5079169,1,13,1,2,1,2,3,2,30,2.0,0.2751406,390969.0,394476.0,393760.0,0.0,393760.0,0.0,391485.0,393477.0,391485.0,394476.0,393483.0,394476.0,3507.0,516.0,2991.0,993.0,1992.0,277.0
13,424.1880863,3.5078995,1,14,1,1,2,1,4,2,20,1.0,0.1253406,394483.0,397993.0,397127.0,397127.0,0.0,0.0,395001.0,396993.0,395001.0,397993.0,396999.0,397993.0,3510.0,518.0,2992.0,994.0,1992.0,128.0
14,427.7044472,3.5078235,1,15,1,2,2,1,5,2,25,2.0,0.3501147,398000.0,401509.0,400867.0,0.0,400867.0,0.0,398517.0,400509.0,398517.0,401509.0,400516.0,401509.0,3509.0,517.0,2992.0,993.0,1992.0,351.0
15,431.2205697,3.5079511,1,16,1,2,1,1,1,2,20,1.0,0.2173695,401515.0,405025.0,404251.0,404251.0,0.0,0.0,402034.0,404026.0,402034.0,405025.0,404032.0,405025.0,3510.0,519.0,2991.0,993.0,1992.0,219.0
16,434.7368441,3.5080735,1,17,1,2,2,2,3,1,25,2.0,-0.1082372,405032.0,408541.0,407442.0,0.0,407442.0,0.0,405550.0,407542.0,405550.0,408541.0,407549.0,408542.0,3509.0,518.0,2991.0,993.0,1992.0,-107.0
17,438.253102,3.5079105,1,18,1,1,1,1,4,2,25,1.0,0.0668853,408548.0,412058.0,411133.0,411133.0,0.0,0.0,409066.0,411057.0,409066.0,412058.0,411065.0,412058.0,3510.0,518.0,2992.0,993.0,1991.0,68.0
18,441.7693339,3.5079087,1,19,1,1,1,1,5,2,30,1.0,0.425452,412064.0,415574.0,415007.0,415007.0,0.0,0.0,412582.0,414573.0,412582.0,415574.0,414581.0,415574.0,3510.0,518.0,2992.0,993.0,1991.0,426.0
19,445.2855762,3.5079102,1,20,1,2,2,1,1,2,35,1.0,0.3751896,415580.0,419090.0,418474.0,418474.0,0.0,0.0,416099.0,418090.0,416099.0,419090.0,418097.0,419090.0,3510.0,519.0,2991.0,993.0,1991.0,377.0
20,448.8018188,3.5079008,1,21,1,2,1,1,2,2,40,1.0,0.5422924,419097.0,422607.0,422157.0,422157.0,0.0,0.0,419615.0,421606.0,419615.0,422607.0,421613.0,422607.0,3510.0,518.0,2992.0,994.0,1991.0,544.0
21,452.3182064,3.5078311,1,22,1,2,2,1,5,2,45,2.0,0.3004878,422613.0,426123.0,425431.0,0.0,425431.0,0.0,423131.0,425122.0,423131.0,426123.0,425129.0,426123.0,3510.0,518.0,2992.0,994.0,1991.0,302.0
22,455.8343059,3.5079062,1,23,1,2,2,1,5,1,40,1.0,0.2501331,426129.0,429638.0,428898.0,428898.0,0.0,0.0,426648.0,428639.0,426648.0,429638.0,428646.0,429638.0,3509.0,519.0,2990.0,992.0,1991.0,252.0
23,459.3505439,3.5079107,1,24,1,1,2,2,5,2,20,2.0,0.1833743,429645.0,433154.0,432347.0,0.0,432347.0,0.0,430164.0,432155.0,430164.0,433155.0,432162.0,433155.0,3509.0,519.0,2991.0,993.0,1991.0,185.0
24,462.8669035,3.5078261,1,25,1,1,1,2,5,2,15,1.0,-0.0062836,433162.0,436671.0,435672.0,435672.0,0.0,0.0,433680.0,435671.0,433680.0,436671.0,435678.0,436671.0,3509.0,518.0,2991.0,993.0,1991.0,-6.0
25,466.3830614,3.5078965,1,26,1,2,2,1,5,2,45,2.0,0.3004715,436678.0,440187.0,439496.0,0.0,439496.0,0.0,437196.0,439188.0,437196.0,440187.0,439194.0,440187.0,3509.0,518.0,2991.0,993.0,1992.0,302.0
26,469.8992911,3.5079036,1,27,1,1,2,1,3,2,40,2.0,0.2918162,440194.0,443703.0,443004.0,0.0,443004.0,0.0,440712.0,442704.0,440712.0,443704.0,442710.0,443704.0,3509.0,518.0,2992.0,994.0,1992.0,294.0
27,473.4155374,3.5079139,1,28,1,2,2,1,3,2,35,2.0,0.291778,443710.0,447220.0,446520.0,0.0,446520.0,0.0,444228.0,446220.0,444228.0,447220.0,446227.0,447220.0,3510.0,518.0,2992.0,993.0,1992.0,293.0
28,476.9317812,3.5080388,1,29,1,2,1,2,2,2,20,1.0,0.2667815,447226.0,450736.0,450011.0,450011.0,0.0,0.0,447744.0,449736.0,447744.0,450736.0,449743.0,450736.0,3510.0,518.0,2992.0,993.0,1992.0,268.0
29,480.4481508,3.5077596,1,30,1,1,1,2,5,2,25,1.0,0.3419288,450743.0,454252.0,453603.0,453603.0,0.0,0.0,451261.0,453253.0,451261.0,454253.0,453259.0,454253.0,3509.0,518.0,2992.0,994.0,1992.0,344.0
30,483.9644243,3.507983945,1,31,1,1,1,2,5,2,30,1.0,0.300465,454259.0,457769.0,457078.0,457078.0,0.0,0.0,454777.0,456769.0,454777.0,457769.0,456776.0,457769.0,3510.0,518.0,2992.0,993.0,1992.0,302.0
31,487.48053,3.5078705,1,32,1,1,1,1,1,1,30,2.0,0.0501882,457775.0,461285.0,460343.0,0.0,460343.0,0.0,458293.0,460284.0,458293.0,461285.0,460292.0,461285.0,3510.0,518.0,2992.0,993.0,1991.0,51.0
32,490.9968335,3.5078275,1,33,1,2,2,1,1,1,25,2.0,-0.1995507,461292.0,464801.0,463610.0,0.0,463610.0,0.0,461810.0,463801.0,461810.0,464801.0,463808.0,464802.0,3509.0,518.0,2991.0,994.0,1991.0,-198.0
33,494.5131407,3.507781,1,34,1,1,2,2,3,2,35,2.0,0.2999958,464808.0,468317.0,467626.0,0.0,467626.0,0.0,465326.0,467317.0,465326.0,468317.0,467324.0,468318.0,3509.0,518.0,2991.0,994.0,1991.0,302.0
34,498.0292585,3.5079258,1,35,1,2,2,1,3,1,20,2.0,-0.0064632,468324.0,471834.0,470834.0,0.0,470834.0,0.0,468842.0,470833.0,468842.0,471834.0,470841.0,471834.0,3510.0,518.0,2992.0,993.0,1991.0,-7.0
35,501.5455153,3.5078945,1,36,1,1,1,1,1,1,15,1.0,0.3834449,471840.0,475350.0,474741.0,474741.0,0.0,0.0,472359.0,474349.0,472359.0,475350.0,474356.0,475350.0,3510.0,519.0,2991.0,994.0,1990.0,385.0
36,505.06175,3.5079064,1,37,1,1,2,2,4,1,30,1.0,0.3668114,475356.0,478865.0,478241.0,478241.0,0.0,0.0,475875.0,477866.0,475875.0,478866.0,477873.0,478866.0,3509.0,519.0,2991.0,993.0,1991.0,368.0
37,508.5779893,3.5079113,1,38,1,2,2,1,1,2,20,1.0,0.309075,478873.0,482382.0,481700.0,481700.0,0.0,0.0,479391.0,481382.0,479391.0,482382.0,481389.0,482382.0,3509.0,518.0,2991.0,993.0,1991.0,311.0
38,512.0942385,3.5079091,1,39,1,1,2,2,1,1,35,2.0,0.2584733,482389.0,485898.0,485165.0,0.0,485165.0,0.0,482907.0,484898.0,482907.0,485898.0,484905.0,485898.0,3509.0,518.0,2991.0,993.0,1991.0,260.0
39,515.6105868,3.5078719,1,40,1,2,1,1,2,2,25,1.0,0.3501272,485905.0,489414.0,488773.0,488773.0,0.0,0.0,486423.0,488415.0,486423.0,489414.0,488421.0,489414.0,3509.0,518.0,2991.0,993.0,1992.0,352.0
40,519.126707,3.5079199,1,41,1,1,1,1,5,2,30,1.0,0.341799,489421.0,492930.0,492281.0,492281.0,0.0,0.0,489939.0,491931.0,489939.0,492931.0,491938.0,492931.0,3509.0,518.0,2992.0,993.0,1992.0,343.0
41,522.6429553,3.5078837,1,42,1,2,2,1,4,2,35,2.0,0.3083544,492937.0,496447.0,495764.0,0.0,495764.0,0.0,493455.0,495447.0,493455.0,496447.0,495454.0,496447.0,3510.0,518.0,2992.0,993.0,1992.0,310.0
42,526.1592808,3.5078611,1,43,1,1,2,1,3,1,30,2.0,0.2584727,496454.0,499963.0,499230.0,0.0,499230.0,0.0,496972.0,498964.0,496972.0,499963.0,498970.0,499963.0,3509.0,518.0,2991.0,993.0,1992.0,260.0
43,529.6754563,3.507927,1,44,1,2,2,2,4,2,30,1.0,0.3584718,499970.0,503480.0,502846.0,502846.0,0.0,0.0,500488.0,502480.0,500488.0,503480.0,502486.0,503480.0,3510.0,518.0,2992.0,994.0,1992.0,360.0
44,533.1917256,3.5078832,1,45,1,2,2,2,1,2,35,2.0,0.3500151,503486.0,506996.0,506354.0,0.0,506354.0,0.0,504004.0,505995.0,504004.0,506996.0,506003.0,506996.0,3510.0,518.0,2992.0,993.0,1991.0,351.0
45,536.7079623,3.5079059,1,46,1,1,1,1,5,1,25,1.0,0.0836965,507002.0,510512.0,509604.0,509604.0,0.0,0.0,507521.0,509511.0,507521.0,510512.0,509519.0,510512.0,3510.0,519.0,2991.0,993.0,1990.0,85.0
46,540.224198,3.5078922,1,47,1,1,2,2,4,2,30,2.0,0.2918383,510518.0,514028.0,513329.0,0.0,513329.0,0.0,511037.0,513028.0,511037.0,514029.0,513035.0,514029.0,3510.0,519.0,2992.0,994.0,1991.0,294.0
47,543.7405489,3.999462,1,48,1,1,1,1,3,2,30,2.0,0.133492,514035.0,518036.0,517178.0,0.0,517178.0,0.0,515045.0,517036.0,515045.0,518036.0,517043.0,518036.0,4001.0,1010.0,2991.0,993.0,1991.0,135.0
48,547.7482917,3.5079242,1,49,1,2,1,2,2,1,25,2.0,0.0751356,518043.0,521552.0,520635.0,0.0,520635.0,0.0,518561.0,520552.0,518561.0,521552.0,520559.0,521552.0,3509.0,518.0,2991.0,993.0,1991.0,76.0
49,551.2645412,3.5078767,1,50,1,2,2,1,1,1,25,2.0,0.3999876,521559.0,525068.0,524477.0,0.0,524477.0,0.0,522077.0,524069.0,522077.0,525068.0,524075.0,525068.0,3509.0,518.0,2991.0,993.0,1992.0,402.0
50,554.7809612,3.5078252,1,51,1,1,2,1,3,1,20,2.0,0.1501998,525075.0,528584.0,527744.0,0.0,527744.0,0.0,525593.0,527585.0,525593.0,528585.0,527592.0,528585.0,3509.0,518.0,2992.0,993.0,1992.0,152.0
51,558.3054244,3.5161234,1,52,1,1,2,2,1,1,20,2.0,0.4086532,528601.0,532118.0,531535.0,0.0,531535.0,0.0,529118.0,531117.0,529118.0,532118.0,531124.0,532118.0,3517.0,517.0,3000.0,994.0,1999.0,411.0
52,561.8298914,3.4995682,1,53,1,1,1,1,2,1,15,1.0,0.2751257,532124.0,535625.0,534909.0,534909.0,0.0,0.0,532634.0,534625.0,532634.0,535625.0,534632.0,535625.0,3501.0,510.0,2991.0,993.0,1991.0,277.0
53,565.3377924,3.5079229,1,54,1,1,1,1,4,2,20,1.0,0.2918215,535632.0,539141.0,538441.0,538441.0,0.0,0.0,536151.0,538142.0,536151.0,539141.0,538148.0,539141.0,3509.0,519.0,2990.0,993.0,1991.0,293.0
54,568.8540405,3.5079043,1,55,1,2,2,2,3,1,15,1.0,0.133544,539148.0,542658.0,541800.0,541800.0,0.0,0.0,539666.0,541658.0,539666.0,542658.0,541665.0,542658.0,3510.0,518.0,2992.0,993.0,1992.0,135.0
55,572.37028,3.5079488,1,56,1,2,2,1,2,2,25,2.0,0.2835358,542664.0,546174.0,545466.0,0.0,545466.0,0.0,543182.0,545174.0,543182.0,546174.0,545181.0,546174.0,3510.0,518.0,2992.0,993.0,1992.0,285.0
56,575.8866634,3.5078103,1,57,1,1,1,2,1,2,20,1.0,-0.1330167,546181.0,549690.0,548566.0,548566.0,0.0,0.0,546699.0,548691.0,546699.0,549690.0,548697.0,549690.0,3509.0,518.0,2991.0,993.0,1992.0,-131.0
57,579.4028018,3.5079436,1,58,1,2,1,1,3,2,20,2.0,0.325152,549697.0,553206.0,552540.0,0.0,552540.0,0.0,550215.0,552207.0,550215.0,553207.0,552213.0,553207.0,3509.0,518.0,2992.0,994.0,1992.0,327.0
58,582.9274157,3.5078537,1,59,1,1,2,1,2,1,15,2.0,0.3835353,553223.0,556731.0,556123.0,0.0,556123.0,0.0,553740.0,555731.0,553740.0,556731.0,555738.0,556731.0,3508.0,517.0,2991.0,993.0,1991.0,385.0
59,586.4435891,3.5079225,1,60,1,1,2,2,5,1,25,2.0,0.2918688,556738.0,560247.0,559547.0,0.0,559547.0,0.0,557255.0,559247.0,557255.0,560247.0,559254.0,560247.0,3509.0,517.0,2992.0,993.0,1992.0,293.0
60,589.9598467,3.5079053,1,61,1,2,2,2,4,2,20,1.0,0.3251986,560254.0,563763.0,563097.0,563097.0,0.0,0.0,560772.0,562764.0,560772.0,563763.0,562770.0,563763.0,3509.0,518.0,2991.0,993.0,1992.0,327.0
61,593.4760834,3.5079148,1,62,1,2,1,2,1,2,25,1.0,0.2835445,563770.0,567280.0,566572.0,566572.0,0.0,0.0,564288.0,566280.0,564288.0,567280.0,566287.0,567280.0,3510.0,518.0,2992.0,993.0,1992.0,285.0
62,596.9923126,3.5079065,1,63,1,2,1,1,3,1,10,1.0,0.1418817,567286.0,570796.0,569946.0,569946.0,0.0,0.0,567804.0,569796.0,567804.0,570796.0,569803.0,570796.0,3510.0,518.0,2992.0,993.0,1992.0,143.0
63,600.5085551,3.5079356,1,64,1,2,1,2,1,2,30,2.0,-0.0496929,570803.0,574312.0,573271.0,0.0,573271.0,0.0,571321.0,573313.0,571321.0,574313.0,573319.0,574313.0,3509.0,518.0,2992.0,994.0,1992.0,-48.0
64,604.0248881,3.5078338,1,65,1,2,1,1,1,2,15,1.0,0.4584262,574319.0,577829.0,577295.0,577295.0,0.0,0.0,574837.0,576829.0,574837.0,577829.0,576835.0,577829.0,3510.0,518.0,2992.0,994.0,1992.0,460.0
65,607.541068,3.5079103,1,66,1,2,2,1,3,2,20,1.0,0.2917517,577835.0,581345.0,580645.0,580645.0,0.0,0.0,578353.0,580344.0,578353.0,581345.0,580351.0,581345.0,3510.0,518.0,2992.0,994.0,1991.0,294.0
66,611.0573772,3.5078286,1,67,1,2,2,2,4,2,25,2.0,0.383531,581352.0,584861.0,584252.0,0.0,584252.0,0.0,581870.0,583861.0,581870.0,584861.0,583868.0,584861.0,3509.0,518.0,2991.0,993.0,1991.0,384.0
67,614.5735467,3.5078771,1,68,1,2,1,1,2,1,25,1.0,0.3334804,584867.0,588377.0,587719.0,587719.0,0.0,0.0,585386.0,587377.0,585386.0,588378.0,587384.0,588378.0,3510.0,519.0,2992.0,994.0,1991.0,335.0
68,618.0897928,3.5078993,1,69,1,1,1,1,1,2,30,1.0,0.0835104,588384.0,591893.0,590985.0,590985.0,0.0,0.0,588902.0,590893.0,588902.0,591893.0,590900.0,591893.0,3509.0,518.0,2991.0,993.0,1991.0,85.0
69,621.6060267,3.5078927,1,70,1,1,1,2,5,1,20,1.0,0.2752074,591900.0,595409.0,594693.0,594693.0,0.0,0.0,592418.0,594409.0,592419.0,595409.0,594416.0,595409.0,3509.0,519.0,2990.0,993.0,1991.0,277.0
70,625.1222438,3.507894,1,71,1,1,1,2,3,1,25,1.0,0.3334877,595416.0,598925.0,598268.0,598268.0,0.0,0.0,595935.0,597926.0,595935.0,598926.0,597933.0,598926.0,3509.0,519.0,2991.0,993.0,1991.0,335.0
71,628.6384787,3.5079523,1,72,1,1,1,2,2,2,30,1.0,0.1751091,598932.0,602442.0,601625.0,601625.0,0.0,0.0,599451.0,601442.0,599451.0,602442.0,601449.0,602442.0,3510.0,519.0,2991.0,993.0,1991.0,176.0
72,632.1547237,3.4995896,1,73,1,2,1,1,3,2,35,2.0,0.2251343,602449.0,605950.0,605183.0,0.0,605183.0,0.0,602958.0,604950.0,602959.0,605950.0,604957.0,605950.0,3501.0,510.0,2991.0,993.0,1992.0,226.0
73,635.662644,3.5078861,1,74,1,1,1,1,3,1,30,1.0,0.2251278,605957.0,609466.0,608700.0,608700.0,0.0,0.0,606475.0,608466.0,606475.0,609466.0,608473.0,609466.0,3509.0,518.0,2991.0,993.0,1991.0,227.0
74,639.1955684,3.5078925,1,75,1,2,1,2,4,2,35,2.0,0.2085479,609491.0,612999.0,612216.0,0.0,612216.0,0.0,610008.0,611999.0,610008.0,612999.0,612006.0,612999.0,3508.0,517.0,2991.0,993.0,1991.0,210.0
75,642.7118117,3.5078841,1,76,1,1,1,1,2,1,35,2.0,0.108523,613006.0,616515.0,615632.0,0.0,615632.0,0.0,613524.0,615515.0,613524.0,616515.0,615522.0,616515.0,3509.0,518.0,2991.0,993.0,1991.0,110.0
76,646.2280367,3.5078694,1,77,1,1,2,2,4,2,30,2.0,0.033542,616522.0,620031.0,619074.0,0.0,619074.0,0.0,617040.0,619032.0,617040.0,620031.0,619038.0,620031.0,3509.0,518.0,2991.0,993.0,1992.0,36.0
77,649.744255,3.5079147,1,78,1,1,2,2,4,1,25,2.0,0.2418418,620038.0,623547.0,622798.0,0.0,622798.0,0.0,620556.0,622548.0,620556.0,623548.0,622554.0,623548.0,3509.0,518.0,2992.0,994.0,1992.0,244.0
78,653.2605028,3.5079132,1,79,1,2,2,1,3,2,30,1.0,0.3667653,623554.0,627064.0,626439.0,626439.0,0.0,0.0,624072.0,626064.0,624072.0,627064.0,626071.0,627064.0,3510.0,518.0,2992.0,993.0,1992.0,368.0
79,656.7767377,3.5078739,1,80,1,1,2,1,3,1,35,2.0,0.5419635,627071.0,630580.0,630130.0,0.0,630130.0,0.0,627588.0,629581.0,627588.0,630580.0,629587.0,630580.0,3509.0,517.0,2992.0,993.0,1993.0,543.0
80,660.2929742,3.50787,1,81,1,2,1,1,3,2,30,2.0,0.3669198,630587.0,634096.0,633472.0,0.0,633472.0,0.0,631105.0,633096.0,631105.0,634096.0,633103.0,634097.0,3509.0,518.0,2991.0,994.0,1991.0,369.0
81,663.8091857,3.5079491,1,82,1,2,2,2,5,2,20,2.0,0.3335877,634103.0,637613.0,636954.0,0.0,636954.0,0.0,634621.0,636613.0,634621.0,637613.0,636619.0,637613.0,3510.0,518.0,2992.0,994.0,1992.0,335.0
82,667.3254161,3.507904,1,83,1,1,2,2,5,1,15,2.0,0.3834832,637619.0,641129.0,640520.0,0.0,640520.0,0.0,638137.0,640128.0,638137.0,641129.0,640136.0,641129.0,3510.0,518.0,2992.0,993.0,1991.0,384.0
83,670.8417193,3.507886,1,84,1,2,1,2,5,1,10,1.0,0.3251487,641135.0,644645.0,643979.0,643979.0,0.0,0.0,641654.0,643645.0,641654.0,644645.0,643652.0,644646.0,3510.0,519.0,2991.0,994.0,1991.0,327.0
84,674.3579226,3.5079025,1,85,1,1,2,2,4,2,15,1.0,0.350154,644652.0,648162.0,647520.0,647520.0,0.0,0.0,645170.0,647161.0,645170.0,648162.0,647168.0,648162.0,3510.0,518.0,2992.0,994.0,1991.0,352.0
85,677.8742107,3.5078664,1,86,1,1,2,2,3,1,20,n/a,n/a,648168.0,651677.0,0.0,0.0,0.0,0.0,648686.0,650677.0,648686.0,651677.0,650684.0,651677.0,3509.0,518.0,2991.0,993.0,1991.0,-650684.0
86,681.3987701,3.7661509,1,87,1,1,1,1,5,2,25,1.0,0.2919229,651694.0,655460.0,654760.0,654760.0,0.0,0.0,652469.0,654461.0,652469.0,655460.0,654467.0,655460.0,3766.0,775.0,2991.0,993.0,1992.0,293.0
87,685.1732448,3.5079387,1,88,1,1,2,1,3,1,30,2.0,0.083517,655467.0,658976.0,658069.0,0.0,658069.0,0.0,655985.0,657977.0,655985.0,658976.0,657983.0,658976.0,3509.0,518.0,2991.0,993.0,1992.0,86.0
88,688.6894835,3.5079072,1,89,1,2,1,1,3,1,25,1.0,0.2835392,658983.0,662493.0,661785.0,661785.0,0.0,0.0,659501.0,661493.0,659501.0,662493.0,661499.0,662493.0,3510.0,518.0,2992.0,994.0,1992.0,286.0
89,692.2057307,3.5078526,1,90,1,2,2,2,3,2,20,1.0,0.241922,662499.0,666009.0,665259.0,665259.0,0.0,0.0,663017.0,665009.0,663017.0,666009.0,665016.0,666009.0,3510.0,518.0,2992.0,993.0,1992.0,243.0
90,695.7218957,3.5077779,1,91,1,1,1,2,5,1,25,1.0,0.2503397,666016.0,669525.0,668784.0,668784.0,0.0,0.0,666534.0,668525.0,666534.0,669525.0,668532.0,669525.0,3509.0,518.0,2991.0,993.0,1991.0,252.0
91,699.2380069,3.5078086,1,92,1,1,1,2,1,1,30,1.0,0.3751072,669532.0,673041.0,672425.0,672425.0,0.0,0.0,670050.0,672041.0,670050.0,673041.0,672048.0,673041.0,3509.0,518.0,2991.0,993.0,1991.0,377.0
92,702.754144,3.5078352,1,93,1,2,2,2,1,2,35,2.0,0.3085586,673048.0,676557.0,675874.0,0.0,675874.0,0.0,673566.0,675557.0,673567.0,676557.0,675564.0,676557.0,3509.0,519.0,2990.0,993.0,1991.0,310.0
93,706.2703093,3.5078101,1,94,1,2,2,2,1,2,30,2.0,0.3167909,676564.0,680073.0,679399.0,0.0,679399.0,0.0,677082.0,679074.0,677082.0,680073.0,679080.0,680073.0,3509.0,518.0,2991.0,993.0,1992.0,319.0
94,709.7864639,3.5078544,1,95,1,1,2,1,1,2,30,2.0,0.6500867,680080.0,683589.0,683248.0,0.0,683248.0,0.0,680598.0,682590.0,680598.0,683590.0,682597.0,683590.0,3509.0,518.0,2992.0,993.0,1992.0,651.0
95,713.3026327,3.507788,1,96,1,2,2,2,5,1,25,1.0,0.5917554,683596.0,687106.0,686706.0,686706.0,0.0,0.0,684114.0,686105.0,684114.0,687106.0,686112.0,687106.0,3510.0,518.0,2992.0,994.0,1991.0,594.0
96,716.8187443,3.5078376,1,97,1,2,2,1,1,1,25,2.0,0.2668483,687112.0,690622.0,689898.0,0.0,689898.0,0.0,687630.0,689622.0,687631.0,690622.0,689629.0,690622.0,3510.0,519.0,2991.0,993.0,1992.0,269.0
97,720.3349163,3.5077986,1,98,1,2,2,1,1,2,20,2.0,0.2834783,690628.0,694137.0,693430.0,0.0,693430.0,0.0,691147.0,693138.0,691147.0,694138.0,693145.0,694138.0,3509.0,519.0,2991.0,993.0,1991.0,285.0
98,723.8510496,3.5078786,1,99,1,1,2,2,2,2,30,2.0,0.3171533,694145.0,697654.0,696980.0,0.0,696980.0,0.0,694663.0,696654.0,694663.0,697654.0,696661.0,697654.0,3509.0,518.0,2991.0,993.0,1991.0,319.0
99,727.3672742,3.5077745,1,100,1,1,1,1,4,1,15,1.0,0.2753279,697661.0,701170.0,700454.0,700454.0,0.0,0.0,698178.0,700170.0,698179.0,701170.0,700177.0,701170.0,3509.0,518.0,2991.0,993.0,1992.0,277.0
100,757.8211908,3.7910493,2,1,1,1,1,1,4,2,15,1.0,0.3420492,728116.0,731907.0,731257.0,731257.0,0.0,0.0,728916.0,730907.0,728917.0,731908.0,730914.0,731908.0,3791.0,801.0,2991.0,994.0,1991.0,343.0
101,761.6206022,3.5161291,2,2,1,2,1,1,5,1,20,1.0,0.4923866,731914.0,735431.0,734933.0,734933.0,0.0,0.0,732441.0,734432.0,732441.0,735432.0,734439.0,735432.0,3517.0,527.0,2991.0,993.0,1991.0,494.0
102,765.1450592,3.5078298,2,3,1,1,1,2,5,2,65,2.0,0.40045,735439.0,738948.0,738357.0,0.0,738357.0,0.0,735957.0,737948.0,735957.0,738948.0,737955.0,738948.0,3509.0,518.0,2991.0,993.0,1991.0,402.0
103,768.6612229,3.5078039,2,4,1,1,1,2,3,2,60,2.0,0.2502518,738954.0,742464.0,741722.0,0.0,741722.0,0.0,739473.0,741464.0,739474.0,742464.0,741471.0,742464.0,3510.0,520.0,2990.0,993.0,1991.0,251.0
104,772.1773891,3.5161288,2,5,1,2,2,2,4,1,55,2.0,0.0508206,742471.0,745989.0,745048.0,0.0,745048.0,0.0,742998.0,744989.0,743000.0,745990.0,744996.0,745991.0,3518.0,529.0,2990.0,995.0,1991.0,52.0
105,775.7018541,3.5078558,2,6,1,1,1,2,3,2,50,2.0,0.3085585,745995.0,749504.0,748822.0,0.0,748822.0,0.0,746513.0,748505.0,746513.0,749504.0,748512.0,749505.0,3509.0,518.0,2991.0,993.0,1992.0,310.0
106,779.2180088,3.5078254,2,7,1,1,2,1,3,2,25,2.0,-0.0055968,749511.0,753021.0,752022.0,0.0,752022.0,0.0,750030.0,752021.0,750030.0,753021.0,752028.0,753021.0,3510.0,519.0,2991.0,993.0,1991.0,-6.0
107,782.7343269,3.5076896,2,8,1,2,2,1,1,1,20,1.0,0.3254236,753028.0,756537.0,755870.0,755870.0,0.0,0.0,753545.0,755537.0,753545.0,756537.0,755544.0,756538.0,3509.0,517.0,2992.0,994.0,1992.0,326.0
108,786.2503558,3.5078245,2,9,1,1,1,1,2,1,25,1.0,0.4417723,756543.0,760053.0,759504.0,759504.0,0.0,0.0,757062.0,759053.0,757062.0,760053.0,759060.0,760054.0,3510.0,519.0,2991.0,994.0,1991.0,444.0
109,789.7665059,3.5078411,2,10,1,1,2,1,3,2,30,2.0,0.3168367,760060.0,763569.0,762894.0,0.0,762894.0,0.0,760578.0,762569.0,760578.0,763569.0,762576.0,763569.0,3509.0,518.0,2991.0,993.0,1991.0,318.0
110,793.2826572,3.9828929,2,11,1,2,2,1,2,2,25,1.0,0.3508776,763576.0,767561.0,766920.0,766920.0,0.0,0.0,764569.0,766560.0,764569.0,767561.0,766567.0,767561.0,3985.0,993.0,2992.0,994.0,1991.0,353.0
111,797.2737643,3.5078216,2,12,1,2,2,1,2,1,30,1.0,0.383464,767567.0,771076.0,770468.0,770468.0,0.0,0.0,768085.0,770076.0,768085.0,771076.0,770083.0,771076.0,3509.0,518.0,2991.0,993.0,1991.0,385.0
112,800.789924,3.5078078,2,13,1,1,1,1,5,2,35,2.0,0.4333043,771083.0,774592.0,774035.0,0.0,774035.0,0.0,771601.0,773593.0,771601.0,774592.0,773600.0,774593.0,3509.0,518.0,2991.0,993.0,1992.0,435.0
113,804.3060601,3.5078427,2,14,1,1,2,1,4,1,30,2.0,0.4002957,774599.0,778109.0,777517.0,0.0,777517.0,0.0,775118.0,777109.0,775118.0,778109.0,777115.0,778109.0,3510.0,519.0,2991.0,994.0,1991.0,402.0
114,807.8222291,3.5078285,2,15,1,2,1,2,1,2,45,2.0,0.9833719,778115.0,781623.0,781617.0,0.0,781617.0,0.0,778633.0,780625.0,778633.0,781623.0,780632.0,781623.0,3508.0,518.0,2990.0,991.0,1992.0,985.0
115,816.954168,3.7494562,2,16,1,1,2,2,4,2,40,2.0,0.3334772,787247.0,790998.0,790340.0,0.0,790340.0,0.0,788007.0,789999.0,788007.0,790998.0,790005.0,790999.0,3751.0,760.0,2991.0,994.0,1992.0,335.0
116,820.711954,3.5080968,2,17,1,2,1,2,5,2,35,2.0,0.3751224,791005.0,794515.0,793898.0,0.0,793898.0,0.0,791523.0,793514.0,791523.0,794515.0,793521.0,794515.0,3510.0,518.0,2992.0,994.0,1991.0,377.0
117,824.2281652,3.5080161,2,18,1,2,2,1,4,2,25,1.0,0.3251241,794521.0,798031.0,797364.0,797364.0,0.0,0.0,795039.0,797031.0,795040.0,798031.0,797038.0,798031.0,3510.0,519.0,2991.0,993.0,1992.0,326.0
118,827.7443179,3.4994932,2,19,1,1,1,1,1,2,30,2.0,0.4087956,798037.0,801538.0,800956.0,0.0,800956.0,0.0,798548.0,800539.0,798548.0,801539.0,800546.0,801539.0,3501.0,511.0,2991.0,993.0,1991.0,410.0
119,831.2521431,3.5078172,2,20,1,1,1,1,3,1,25,1.0,0.3667785,801545.0,805055.0,804430.0,804430.0,0.0,0.0,802063.0,804055.0,802063.0,805055.0,804061.0,805055.0,3510.0,518.0,2992.0,994.0,1992.0,369.0
120,834.7683183,3.5078208,2,21,1,1,1,1,5,1,30,1.0,0.1750109,805061.0,808571.0,807754.0,807754.0,0.0,0.0,805579.0,807570.0,805579.0,808571.0,807578.0,808571.0,3510.0,518.0,2992.0,993.0,1991.0,176.0
121,838.284457,3.5078217,2,22,1,1,1,1,5,2,35,2.0,0.0669028,808577.0,812087.0,811162.0,0.0,811162.0,0.0,809096.0,811087.0,809096.0,812087.0,811094.0,812087.0,3510.0,519.0,2991.0,993.0,1991.0,68.0
122,841.8006138,3.5078354,2,23,1,1,2,2,3,2,30,2.0,0.3504755,812093.0,815603.0,814962.0,0.0,814962.0,0.0,812612.0,814603.0,812612.0,815603.0,814610.0,815603.0,3510.0,519.0,2991.0,993.0,1991.0,352.0
123,845.3167823,3.5078043,2,24,1,2,2,1,3,2,30,1.0,0.3584545,815610.0,819119.0,818486.0,818486.0,0.0,0.0,816128.0,818119.0,816128.0,819119.0,818126.0,819119.0,3509.0,518.0,2991.0,993.0,1991.0,360.0
124,848.8330338,3.5077144,2,25,1,1,1,2,5,2,25,1.0,0.2334768,819126.0,822635.0,821878.0,821878.0,0.0,0.0,819644.0,821636.0,819644.0,822635.0,821642.0,822635.0,3509.0,518.0,2991.0,993.0,1992.0,236.0
125,852.3490786,3.507861,2,26,1,1,2,2,4,1,30,2.0,0.2251357,822642.0,826151.0,825385.0,0.0,825385.0,0.0,823160.0,825152.0,823160.0,826152.0,825158.0,826152.0,3509.0,518.0,2992.0,994.0,1992.0,227.0
126,855.8652503,3.5077816,2,27,1,1,1,1,2,1,35,2.0,0.2501349,826158.0,829668.0,828926.0,0.0,828926.0,0.0,826676.0,828667.0,826676.0,829668.0,828674.0,829668.0,3510.0,518.0,2992.0,994.0,1991.0,252.0
127,859.3814528,3.5077743,2,28,1,1,2,1,4,2,30,2.0,0.300109,829674.0,833184.0,832492.0,0.0,832492.0,0.0,830193.0,832184.0,830193.0,833184.0,832191.0,833184.0,3510.0,519.0,2991.0,993.0,1991.0,301.0
128,862.8975491,3.5078117,2,29,1,2,2,2,3,2,25,1.0,-0.1496059,833190.0,836699.0,835559.0,835559.0,0.0,0.0,833709.0,835700.0,833709.0,836700.0,835707.0,836700.0,3509.0,519.0,2991.0,993.0,1991.0,-148.0
129,866.4138312,3.5076949,2,30,1,1,1,2,4,1,30,1.0,0.0421622,836707.0,840216.0,839266.0,839266.0,0.0,0.0,837225.0,839216.0,837225.0,840216.0,839223.0,840216.0,3509.0,518.0,2991.0,993.0,1991.0,43.0
130,869.9298613,3.5078195,2,31,1,2,2,1,3,2,25,2.0,0.3084544,840223.0,843732.0,843049.0,0.0,843049.0,0.0,840740.0,842732.0,840740.0,843732.0,842739.0,843732.0,3509.0,517.0,2992.0,993.0,1992.0,310.0
131,873.4460025,3.5077891,2,32,1,1,2,2,1,1,35,2.0,0.3089668,843739.0,847248.0,846566.0,0.0,846566.0,0.0,844257.0,846249.0,844257.0,847249.0,846255.0,847249.0,3509.0,518.0,2992.0,994.0,1992.0,311.0
132,876.9622489,3.5077252,2,33,1,1,2,2,5,1,30,2.0,0.2751391,847255.0,850765.0,850048.0,0.0,850048.0,0.0,847773.0,849764.0,847773.0,850765.0,849771.0,850765.0,3510.0,518.0,2992.0,994.0,1991.0,277.0
133,880.4866766,3.5078191,2,34,1,1,2,1,4,1,20,2.0,0.4251112,850781.0,854289.0,853722.0,0.0,853722.0,0.0,851297.0,853290.0,851297.0,854289.0,853296.0,854289.0,3508.0,516.0,2992.0,993.0,1993.0,426.0
134,884.0029463,3.5076919,2,35,1,2,1,2,5,1,25,1.0,0.3251096,854296.0,857805.0,857139.0,857139.0,0.0,0.0,854814.0,856805.0,854814.0,857805.0,856812.0,857805.0,3509.0,518.0,2991.0,993.0,1991.0,327.0
135,887.5189721,3.5078528,2,36,1,1,2,1,4,1,15,1.0,0.2418855,857812.0,861321.0,860572.0,860572.0,0.0,0.0,858330.0,860321.0,858330.0,861322.0,860328.0,861322.0,3509.0,518.0,2992.0,994.0,1991.0,244.0
136,891.03522,3.5077312,2,37,1,1,2,1,1,1,20,2.0,0.2835371,861328.0,864837.0,864129.0,0.0,864129.0,0.0,861846.0,863837.0,861846.0,864837.0,863844.0,864837.0,3509.0,518.0,2991.0,993.0,1991.0,285.0
137,894.5596167,3.5078277,2,38,1,1,2,1,1,2,15,2.0,0.2834076,864852.0,868362.0,867653.0,0.0,867653.0,0.0,865371.0,867362.0,865371.0,868362.0,867369.0,868362.0,3510.0,519.0,2991.0,993.0,1991.0,284.0
138,898.0757582,3.5078345,2,39,1,1,1,2,4,1,30,1.0,0.2752229,868369.0,871878.0,871162.0,871162.0,0.0,0.0,868887.0,870878.0,868887.0,871878.0,870885.0,871878.0,3509.0,518.0,2991.0,993.0,1991.0,277.0
139,901.5919334,3.5078329,2,40,1,1,1,1,5,1,10,1.0,0.2751099,871885.0,875394.0,874678.0,874678.0,0.0,0.0,872403.0,874394.0,872403.0,875394.0,874401.0,875394.0,3509.0,518.0,2991.0,993.0,1991.0,277.0
140,905.1082501,3.5076726,2,41,1,1,2,2,1,2,35,2.0,0.3001206,875401.0,878910.0,878218.0,0.0,878218.0,0.0,875919.0,877910.0,875919.0,878910.0,877917.0,878910.0,3509.0,518.0,2991.0,993.0,1991.0,301.0
141,908.6242456,3.5077882,2,42,1,1,2,1,5,2,15,2.0,0.4167807,878917.0,882426.0,881852.0,0.0,881852.0,0.0,879435.0,881427.0,879435.0,882427.0,881433.0,882427.0,3509.0,518.0,2992.0,994.0,1992.0,419.0
142,912.1405186,3.5077043,2,43,1,2,1,2,3,2,30,2.0,0.266783,882433.0,885943.0,885218.0,0.0,885218.0,0.0,882951.0,884943.0,882951.0,885943.0,884949.0,885943.0,3510.0,518.0,2992.0,994.0,1992.0,269.0
143,915.6565926,3.5079214,2,44,1,1,2,2,2,2,25,2.0,0.1501689,885949.0,889459.0,888617.0,0.0,888617.0,0.0,886467.0,888458.0,886467.0,889459.0,888466.0,889459.0,3510.0,518.0,2992.0,993.0,1991.0,151.0
144,919.1727001,3.5077896,2,45,1,2,1,2,5,1,20,1.0,0.2834181,889465.0,892974.0,892267.0,892267.0,0.0,0.0,889984.0,891975.0,889984.0,892974.0,891982.0,892974.0,3509.0,519.0,2990.0,992.0,1991.0,285.0
145,922.6888095,3.5078292,2,46,1,2,1,2,1,1,25,1.0,0.4168284,892981.0,896491.0,895916.0,895916.0,0.0,0.0,893500.0,895491.0,893500.0,896491.0,895498.0,896491.0,3510.0,519.0,2991.0,993.0,1991.0,418.0
146,926.2049739,3.4995302,2,47,1,2,1,1,4,2,10,1.0,0.4084522,896498.0,899999.0,899415.0,899415.0,0.0,0.0,897007.0,898999.0,897007.0,899999.0,899006.0,899999.0,3501.0,509.0,2992.0,993.0,1992.0,409.0
147,929.7128481,3.5078221,2,48,1,1,1,1,5,2,15,1.0,0.2501599,900006.0,903515.0,902773.0,902773.0,0.0,0.0,900524.0,902515.0,900524.0,903516.0,902522.0,903516.0,3509.0,518.0,2992.0,994.0,1991.0,251.0
148,933.2291417,3.5076853,2,49,1,2,2,2,4,1,30,1.0,0.3501231,903522.0,907031.0,906390.0,906390.0,0.0,0.0,904040.0,906031.0,904040.0,907032.0,906038.0,907032.0,3509.0,518.0,2992.0,994.0,1991.0,352.0
149,936.7451632,3.5078335,2,50,1,1,1,2,5,2,35,1.0,-0.0497601,907038.0,910547.0,909506.0,909506.0,0.0,0.0,907556.0,909547.0,907556.0,910547.0,909554.0,910547.0,3509.0,518.0,2991.0,993.0,1991.0,-48.0
150,940.2613212,3.5078198,2,51,1,1,1,1,4,2,20,1.0,0.2918779,910554.0,914063.0,913363.0,913363.0,0.0,0.0,911073.0,913064.0,911073.0,914063.0,913070.0,914063.0,3509.0,519.0,2990.0,993.0,1991.0,293.0
151,943.7774739,3.507826,2,52,1,2,1,2,1,1,40,2.0,0.3167579,914070.0,917579.0,916905.0,0.0,916905.0,0.0,914588.0,916580.0,914588.0,917580.0,916586.0,917580.0,3509.0,518.0,2992.0,994.0,1992.0,319.0
152,947.2936283,3.5078402,2,53,1,1,1,1,1,1,25,1.0,0.3834436,917586.0,921096.0,920488.0,920488.0,0.0,0.0,918104.0,920096.0,918104.0,921096.0,920103.0,921096.0,3510.0,518.0,2992.0,993.0,1992.0,385.0
153,950.809803,3.5079011,2,54,1,2,2,2,3,1,35,2.0,0.0085742,921102.0,924612.0,923628.0,0.0,923628.0,0.0,921620.0,923611.0,921620.0,924612.0,923619.0,924612.0,3510.0,518.0,2992.0,993.0,1991.0,9.0
154,954.3259481,3.5078208,2,55,1,2,2,1,2,1,30,2.0,0.33347,924618.0,928128.0,927470.0,0.0,927470.0,0.0,925137.0,927128.0,925137.0,928128.0,927135.0,928128.0,3510.0,519.0,2991.0,993.0,1991.0,335.0
155,957.8420999,3.5078267,2,56,1,1,1,1,1,1,25,1.0,0.26682,928135.0,931644.0,930919.0,930919.0,0.0,0.0,928653.0,930644.0,928653.0,931644.0,930651.0,931644.0,3509.0,518.0,2991.0,993.0,1991.0,268.0
156,961.3582673,3.5078115,2,57,1,1,2,2,1,1,30,2.0,0.2584004,931651.0,935160.0,934427.0,0.0,934427.0,0.0,932169.0,934160.0,932169.0,935160.0,934167.0,935160.0,3509.0,518.0,2991.0,993.0,1991.0,260.0
157,964.8744154,3.5078056,2,58,1,2,2,1,1,1,30,2.0,0.0335081,935167.0,938676.0,937719.0,0.0,937719.0,0.0,935685.0,937677.0,935685.0,938676.0,937683.0,938676.0,3509.0,518.0,2991.0,993.0,1992.0,36.0
158,968.3905558,3.5078756,2,59,1,1,2,1,1,2,25,2.0,-0.0995936,938683.0,942193.0,941101.0,0.0,941101.0,0.0,939201.0,941193.0,939201.0,942193.0,941199.0,942193.0,3510.0,518.0,2992.0,994.0,1992.0,-98.0
159,971.9067112,3.5078058,2,60,1,2,2,1,2,1,20,2.0,0.0752591,942199.0,945709.0,944792.0,0.0,944792.0,0.0,942717.0,944708.0,942717.0,945709.0,944715.0,945709.0,3510.0,518.0,2992.0,994.0,1991.0,77.0
160,975.4228679,3.5078545,2,61,1,1,2,1,2,1,15,1.0,0.2834883,945715.0,949225.0,948516.0,948516.0,0.0,0.0,946234.0,948225.0,946234.0,949225.0,948232.0,949226.0,3510.0,519.0,2991.0,994.0,1991.0,284.0
161,978.9391149,3.5077492,2,62,1,2,1,2,4,1,25,2.0,0.350149,949232.0,952740.0,952100.0,0.0,952100.0,0.0,949750.0,951741.0,949750.0,952740.0,951748.0,952741.0,3508.0,518.0,2990.0,993.0,1991.0,352.0
162,982.4551811,3.50784,2,63,1,2,2,2,2,2,20,2.0,-0.0830706,952748.0,956257.0,955182.0,0.0,955182.0,0.0,953266.0,955257.0,953266.0,956257.0,955264.0,956257.0,3509.0,518.0,2991.0,993.0,1991.0,-82.0
163,985.9714957,3.5076872,2,64,1,1,2,1,1,1,20,2.0,0.5084957,956264.0,959773.0,959290.0,0.0,959290.0,0.0,956782.0,958774.0,956782.0,959773.0,958780.0,959773.0,3509.0,518.0,2991.0,993.0,1992.0,510.0
164,989.4875109,3.4994965,2,65,1,1,2,1,1,2,15,2.0,0.1501821,959780.0,963281.0,962440.0,0.0,962440.0,0.0,960290.0,962281.0,960290.0,963282.0,962288.0,963282.0,3501.0,510.0,2992.0,994.0,1991.0,152.0
165,992.995473,3.5077047,2,66,1,2,2,1,4,1,10,1.0,0.2418014,963288.0,966797.0,966047.0,966047.0,0.0,0.0,963806.0,965797.0,963806.0,966797.0,965804.0,966797.0,3509.0,518.0,2991.0,993.0,1991.0,243.0
166,996.5115112,3.5078085,2,67,1,2,2,2,1,1,15,1.0,0.3251222,966804.0,970313.0,969646.0,969646.0,0.0,0.0,967322.0,969313.0,967322.0,970313.0,969320.0,970314.0,3509.0,518.0,2991.0,994.0,1991.0,326.0
167,1000.027716,3.5077633,2,68,1,1,2,1,2,1,15,2.0,0.2251366,970320.0,973829.0,973063.0,0.0,973063.0,0.0,970838.0,972830.0,970838.0,973829.0,972836.0,973829.0,3509.0,518.0,2991.0,993.0,1992.0,227.0
168,1003.543809,3.5078218,2,69,1,2,1,1,1,2,10,1.0,0.2417862,973836.0,977346.0,976596.0,976596.0,0.0,0.0,974354.0,976346.0,974354.0,977346.0,976352.0,977346.0,3510.0,518.0,2992.0,994.0,1992.0,244.0
169,1007.0601,3.5077026,2,70,1,2,1,2,5,1,20,n/a,n/a,977353.0,980862.0,0.0,0.0,0.0,0.0,977870.0,979861.0,977870.0,980862.0,979869.0,980862.0,3509.0,517.0,2992.0,993.0,1991.0,-979869.0
170,1010.576135,3.5078266,2,71,1,1,1,2,5,2,20,1.0,0.3167768,980868.0,984378.0,983703.0,983703.0,0.0,0.0,981387.0,983378.0,981387.0,984378.0,983385.0,984378.0,3510.0,519.0,2991.0,993.0,1991.0,318.0
171,1014.092282,3.5078068,2,72,1,1,1,1,5,2,15,1.0,0.3587613,984384.0,987893.0,987261.0,987261.0,0.0,0.0,984903.0,986894.0,984903.0,987894.0,986901.0,987894.0,3509.0,519.0,2991.0,993.0,1991.0,360.0
172,1017.608424,3.5078214,2,73,1,2,2,2,2,2,25,2.0,0.325594,987901.0,991410.0,990744.0,0.0,990744.0,0.0,988419.0,990410.0,988419.0,991410.0,990417.0,991410.0,3509.0,518.0,2991.0,993.0,1991.0,327.0
173,1021.124577,3.5077889,2,74,1,2,2,2,3,2,20,n/a,n/a,991417.0,994926.0,0.0,0.0,0.0,0.0,991935.0,993927.0,991935.0,994926.0,993933.0,994926.0,3509.0,518.0,2991.0,993.0,1992.0,-993933.0
174,1024.640699,3.5078249,2,75,1,2,2,2,5,2,20,n/a,n/a,994933.0,998442.0,0.0,0.0,0.0,0.0,995451.0,997443.0,995451.0,998442.0,997449.0,998443.0,3509.0,518.0,2991.0,994.0,1992.0,-997449.0
175,1028.156857,3.5079413,2,76,1,2,2,1,1,2,20,2.0,0.358481,998449.0,1001959.0,1001325.0,0.0,1001325.0,0.0,998967.0,1000958.0,998967.0,1001959.0,1000965.0,1001959.0,3510.0,518.0,2992.0,994.0,1991.0,360.0
176,1031.673177,3.5077279,2,77,1,1,2,2,4,1,20,2.0,0.4001108,1001966.0,1005475.0,1004883.0,0.0,1004883.0,0.0,1002483.0,1004474.0,1002483.0,1005475.0,1004482.0,1005475.0,3509.0,517.0,2992.0,993.0,1991.0,401.0
177,1035.189239,3.5078097,2,78,1,1,2,1,1,1,15,2.0,0.4417706,1005481.0,1008990.0,1008441.0,0.0,1008441.0,0.0,1006000.0,1007991.0,1006000.0,1008991.0,1007998.0,1008991.0,3509.0,519.0,2991.0,993.0,1991.0,443.0
178,1038.705383,3.5078372,2,79,1,1,1,2,4,2,15,1.0,0.3756044,1008998.0,1012507.0,1011891.0,1011891.0,0.0,0.0,1009516.0,1011507.0,1009516.0,1012507.0,1011514.0,1012507.0,3509.0,518.0,2991.0,993.0,1991.0,377.0
179,1042.221556,3.5078086,2,80,1,1,2,1,4,2,10,1.0,0.4834008,1012514.0,1016023.0,1015515.0,1015515.0,0.0,0.0,1013031.0,1015024.0,1013031.0,1016023.0,1015030.0,1016023.0,3509.0,517.0,2992.0,993.0,1993.0,485.0
180,1045.737699,3.5078224,2,81,1,1,2,2,2,2,20,2.0,0.1834776,1016030.0,1019539.0,1018732.0,0.0,1018732.0,0.0,1016548.0,1018540.0,1016548.0,1019539.0,1018546.0,1019539.0,3509.0,518.0,2991.0,993.0,1992.0,186.0
181,1049.253865,3.5079188,2,82,1,1,2,2,4,2,15,2.0,0.2334526,1019546.0,1023056.0,1022297.0,0.0,1022297.0,0.0,1020064.0,1022055.0,1020064.0,1023056.0,1022062.0,1023056.0,3510.0,518.0,2992.0,994.0,1991.0,235.0
182,1052.770232,3.507613086,2,83,1,1,1,2,2,1,10,1.0,0.2500023,1023063.0,1026572.0,1025830.0,1025830.0,0.0,0.0,1023580.0,1025571.0,1023580.0,1026572.0,1025579.0,1026572.0,3509.0,517.0,2992.0,993.0,1991.0,251.0
183,1056.286174,3.5078266,2,84,1,2,2,2,4,2,15,1.0,0.2166204,1026578.0,1030088.0,1029313.0,1029313.0,0.0,0.0,1027097.0,1029088.0,1027097.0,1030089.0,1029095.0,1030089.0,3510.0,519.0,2992.0,994.0,1991.0,218.0
184,1059.802455,3.5077005,2,85,1,2,1,1,3,1,15,1.0,0.3501275,1030095.0,1033603.0,1032963.0,1032963.0,0.0,0.0,1030613.0,1032604.0,1030613.0,1033604.0,1032611.0,1033604.0,3508.0,518.0,2991.0,993.0,1991.0,352.0
185,1063.318625,3.507893638,2,86,1,1,2,1,4,2,20,2.0,0.224969,1033611.0,1037121.0,1036353.0,0.0,1036353.0,0.0,1034129.0,1036120.0,1034129.0,1037121.0,1036127.0,1037121.0,3510.0,518.0,2992.0,994.0,1991.0,226.0
186,1066.834643,3.5078112,2,87,1,1,2,2,4,2,20,1.0,0.3334546,1037127.0,1040636.0,1039979.0,1039979.0,0.0,0.0,1037645.0,1039637.0,1037645.0,1040636.0,1039643.0,1040637.0,3509.0,518.0,2991.0,994.0,1992.0,336.0
187,1070.35093,3.5076882,2,88,1,1,1,2,5,1,25,1.0,0.1084846,1040643.0,1044152.0,1043269.0,1043269.0,0.0,0.0,1041161.0,1043153.0,1041161.0,1044153.0,1043159.0,1044153.0,3509.0,518.0,2992.0,994.0,1992.0,110.0
188,1073.867152,3.5076344,2,89,1,1,1,2,4,1,30,2.0,0.3918158,1044159.0,1047669.0,1047069.0,0.0,1047069.0,0.0,1044677.0,1046668.0,1044677.0,1047669.0,1046675.0,1047669.0,3510.0,518.0,2992.0,994.0,1991.0,394.0
189,1077.383115,3.5078078,2,90,1,1,1,2,5,2,25,2.0,-1.9328452,1047675.0,1051185.0,1048260.0,0.0,1048260.0,0.0,1048193.0,1050184.0,1048194.0,1051185.0,1050191.0,1051185.0,3510.0,519.0,2991.0,994.0,1991.0,-1931.0
190,1080.899276,3.5078256,2,91,1,1,1,1,4,1,15,1.0,0.2501535,1051191.0,1054700.0,1053960.0,1053960.0,0.0,0.0,1051710.0,1053701.0,1051710.0,1054700.0,1053708.0,1054701.0,3509.0,519.0,2990.0,993.0,1991.0,252.0
191,1084.415433,3.5078147,2,92,1,1,1,2,1,2,20,1.0,-0.1163963,1054707.0,1058217.0,1057109.0,1057109.0,0.0,0.0,1055226.0,1057217.0,1055226.0,1058217.0,1057224.0,1058217.0,3510.0,519.0,2991.0,993.0,1991.0,-115.0
192,1087.931748,3.5076742,2,93,1,2,2,2,3,2,25,1.0,0.2667754,1058224.0,1061733.0,1061008.0,1061008.0,0.0,0.0,1058741.0,1060733.0,1058741.0,1061733.0,1060740.0,1061733.0,3509.0,517.0,2992.0,993.0,1992.0,268.0
193,1091.447754,3.5912484,2,94,1,1,2,2,4,2,30,2.0,0.3584318,1061740.0,1065333.0,1064699.0,0.0,1064699.0,0.0,1062342.0,1064333.0,1062342.0,1065333.0,1064339.0,1065333.0,3593.0,602.0,2991.0,994.0,1991.0,360.0
194,1095.04726,3.5077944,2,95,1,1,2,2,2,1,25,2.0,0.1751437,1065339.0,1068849.0,1068032.0,0.0,1068032.0,0.0,1065857.0,1067849.0,1065857.0,1068849.0,1067856.0,1068849.0,3510.0,518.0,2992.0,993.0,1992.0,176.0
195,1098.563528,3.5078226,2,96,1,1,2,1,2,1,20,2.0,0.3001294,1068856.0,1072365.0,1071673.0,0.0,1071673.0,0.0,1069373.0,1071365.0,1069373.0,1072365.0,1071372.0,1072365.0,3509.0,517.0,2992.0,993.0,1992.0,301.0
196,1102.079555,3.5078362,2,97,1,2,1,1,3,2,15,1.0,0.474863243,1072371.0,1075881.0,1075364.0,1075364.0,0.0,0.0,1072890.0,1074881.0,1072890.0,1075881.0,1074888.0,1075881.0,3510.0,519.0,2991.0,993.0,1991.0,476.0
197,1105.595695,3.5078404,2,98,1,1,2,1,3,1,20,2.0,0.2584967,1075888.0,1079397.0,1078664.0,0.0,1078664.0,0.0,1076406.0,1078397.0,1076406.0,1079397.0,1078404.0,1079398.0,3509.0,518.0,2991.0,994.0,1991.0,260.0
198,1109.111871,3.5078366,2,99,1,1,2,1,3,1,15,1.0,0.4251807,1079404.0,1082913.0,1082347.0,1082347.0,0.0,0.0,1079922.0,1081913.0,1079922.0,1082913.0,1081920.0,1082913.0,3509.0,518.0,2991.0,993.0,1991.0,427.0
199,1112.628048,3.5079543,2,100,1,1,1,2,4,1,20,1.0,0.3501194,1082920.0,1086430.0,1085788.0,1085788.0,0.0,0.0,1083438.0,1085430.0,1083438.0,1086430.0,1085436.0,1086430.0,3510.0,518.0,2992.0,994.0,1992.0,352.0
