,onset,duration,run_number,trial_number,task,ext_mot_pos,ext_mot_ver_dir,staircase_num,fix_off_prct,trial_type,ext_mot_ori,direction_report,response_duration,trial_onset,trial_offset,button_press_onset,button_left,button_right,fix_break,motion_onset,motion_offset,fixation_onset,fixation_offset,response_onset,response_offset,trial_duration,fix_check_duration,fixation_duration,response_duration,motion_duration,reaction_time
0,295.8110237,3.8827905,1,1,1,2,2,2,5,2,-65,1.0,0.8002732,226438.0,230320.0,230129.0,230129.0,0.0,0.0,227330.0,229321.0,227330.0,230321.0,229328.0,230321.0,3882.0,892.0,2991.0,993.0,1991.0,801.0
1,299.702148,3.5079235,1,2,1,2,2,1,5,1,-15,2.0,0.4168739,230328.0,233836.0,233263.0,0.0,233263.0,0.0,230846.0,232837.0,230846.0,233837.0,232844.0,233837.0,3508.0,518.0,2991.0,993.0,1991.0,419.0
2,303.2185375,3.5078008,1,3,1,1,2,1,5,2,-20,2.0,-0.1493978,233844.0,237353.0,236212.0,0.0,236212.0,0.0,234362.0,236353.0,234362.0,237353.0,236360.0,237353.0,3509.0,518.0,2991.0,993.0,1991.0,-148.0
3,306.7346611,3.5078915,1,4,1,2,1,1,3,2,-25,1.0,-0.4911747,237360.0,240869.0,239387.0,239387.0,0.0,0.0,237878.0,239869.0,237879.0,240869.0,239876.0,240869.0,3509.0,519.0,2990.0,993.0,1991.0,-489.0
4,310.2508796,3.5163227,1,5,1,2,1,1,1,1,-20,1.0,-0.107262,240876.0,244394.0,243295.0,243295.0,0.0,0.0,241403.0,243395.0,241404.0,244395.0,243401.0,244396.0,3518.0,528.0,2991.0,995.0,1992.0,-106.0
5,313.7838795,3.5079028,1,6,1,1,1,2,4,2,-60,1.0,-0.1079778,244410.0,247918.0,246819.0,246819.0,0.0,0.0,244927.0,246918.0,244927.0,247919.0,246925.0,247919.0,3508.0,517.0,2992.0,994.0,1991.0,-106.0
6,317.3001006,3.5079242,1,7,1,2,2,2,3,2,-55,1.0,0.0677984,247925.0,251435.0,250511.0,250511.0,0.0,0.0,248443.0,250434.0,248443.0,251435.0,250442.0,251435.0,3510.0,518.0,2992.0,993.0,1991.0,69.0
7,320.8164881,3.5077946,1,8,1,2,2,1,3,2,-15,2.0,-0.1410677,251442.0,254951.0,253819.0,0.0,253819.0,0.0,251960.0,253951.0,251960.0,254951.0,253958.0,254951.0,3509.0,518.0,2991.0,993.0,1991.0,-139.0
8,324.3326125,3.5079376,1,9,1,1,1,1,5,1,-20,2.0,-0.1579555,254958.0,258467.0,257318.0,0.0,257318.0,0.0,255476.0,257467.0,255476.0,258468.0,257474.0,258468.0,3509.0,518.0,2992.0,994.0,1991.0,-156.0
9,327.848869,3.5162677,1,10,1,1,1,1,3,2,-25,2.0,0.1938111,258474.0,261992.0,261187.0,0.0,261187.0,0.0,258992.0,260983.0,258992.0,261992.0,260990.0,261992.0,3518.0,518.0,3000.0,1002.0,1991.0,197.0
10,331.3734578,3.4995452,1,11,1,2,2,2,3,1,-50,1.0,0.2419323,261998.0,265499.0,264750.0,264750.0,0.0,0.0,262509.0,264499.0,262509.0,265499.0,264506.0,265499.0,3501.0,511.0,2990.0,993.0,1990.0,244.0
11,334.881343,3.5079473,1,12,1,1,1,2,1,2,-45,1.0,0.2001549,265506.0,269015.0,268225.0,268225.0,0.0,0.0,266025.0,268016.0,266025.0,269015.0,268023.0,269016.0,3509.0,519.0,2990.0,993.0,1991.0,202.0
12,338.3976116,3.5078957,1,13,1,1,1,1,4,1,-30,2.0,-0.5997171,269022.0,272532.0,270940.0,0.0,270940.0,0.0,269541.0,271532.0,269541.0,272532.0,271539.0,272532.0,3510.0,519.0,2991.0,993.0,1991.0,-599.0
13,341.9138403,3.5079682,1,14,1,2,1,2,3,2,-40,1.0,-0.3829405,272539.0,276048.0,274674.0,274674.0,0.0,0.0,273056.0,275048.0,273056.0,276048.0,275055.0,276048.0,3509.0,517.0,2992.0,993.0,1992.0,-381.0
14,345.4302544,3.5078806,1,15,1,2,2,2,4,1,-35,2.0,-0.6830341,276055.0,279564.0,277890.0,0.0,277890.0,0.0,276573.0,278565.0,276573.0,279564.0,278571.0,279564.0,3509.0,518.0,2991.0,993.0,1992.0,-681.0
15,348.9463818,3.5079202,1,16,1,2,2,2,2,2,-40,1.0,0.7252417,279571.0,283081.0,282815.0,282815.0,0.0,0.0,280089.0,282081.0,280089.0,283081.0,282088.0,283081.0,3510.0,518.0,2992.0,993.0,1992.0,727.0
16,352.4627668,3.5078018,1,17,1,2,1,2,4,2,-35,2.0,0.4336034,283088.0,286597.0,286039.0,0.0,286039.0,0.0,283605.0,285597.0,283605.0,286597.0,285604.0,286597.0,3509.0,517.0,2992.0,993.0,1992.0,435.0
17,355.9789017,3.4995922,1,18,1,1,2,2,3,1,-40,1.0,-0.074748,286604.0,290105.0,289039.0,289039.0,0.0,0.0,287114.0,289105.0,287114.0,290105.0,289112.0,290105.0,3501.0,510.0,2991.0,993.0,1991.0,-73.0
18,359.4868166,3.5079298,1,19,1,2,2,2,3,1,-35,2.0,-0.0663735,290111.0,293621.0,292563.0,0.0,292563.0,0.0,290630.0,292621.0,290630.0,293622.0,292628.0,293622.0,3510.0,519.0,2992.0,994.0,1991.0,-65.0
19,363.0030809,3.5079341,1,20,1,1,1,2,2,1,-40,1.0,0.5666496,293628.0,297137.0,296712.0,296712.0,0.0,0.0,294146.0,296137.0,294146.0,297137.0,296144.0,297137.0,3509.0,518.0,2991.0,993.0,1991.0,568.0
20,366.5193527,3.5079031,1,21,1,1,1,2,3,2,-35,2.0,0.3166834,297144.0,300653.0,299978.0,0.0,299978.0,0.0,297663.0,299654.0,297663.0,300653.0,299661.0,300653.0,3509.0,519.0,2990.0,992.0,1991.0,317.0
21,370.0355871,3.5079214,1,22,1,1,2,1,5,1,-35,2.0,0.2923284,300660.0,304169.0,303471.0,0.0,303471.0,0.0,301179.0,303170.0,301179.0,304169.0,303176.0,304170.0,3509.0,519.0,2990.0,994.0,1991.0,295.0
22,373.5518392,3.5079363,1,23,1,2,2,1,4,2,-40,2.0,0.1754761,304176.0,307686.0,306870.0,0.0,306870.0,0.0,304694.0,306686.0,304694.0,307686.0,306693.0,307686.0,3510.0,518.0,2992.0,993.0,1992.0,177.0
23,377.0681,3.5079161,1,24,1,1,2,1,2,2,-45,2.0,0.3004964,307693.0,311202.0,310511.0,0.0,310511.0,0.0,308210.0,310202.0,308210.0,311202.0,310209.0,311202.0,3509.0,517.0,2992.0,993.0,1992.0,302.0
24,380.5843471,3.5079224,1,25,1,1,2,2,1,1,-40,1.0,0.0584869,311209.0,314718.0,313786.0,313786.0,0.0,0.0,311727.0,313719.0,311727.0,314719.0,313725.0,314719.0,3509.0,518.0,2992.0,994.0,1992.0,61.0
25,384.100717,3.5078105,1,26,1,1,1,1,3,1,-50,1.0,0.4417657,314725.0,318235.0,317685.0,317685.0,0.0,0.0,315243.0,317235.0,315243.0,318235.0,317241.0,318235.0,3510.0,518.0,2992.0,994.0,1992.0,444.0
26,387.616988,3.5077998,1,27,1,1,1,1,4,2,-45,1.0,0.525101,318241.0,321751.0,321284.0,321284.0,0.0,0.0,318759.0,320751.0,318759.0,321751.0,320758.0,321751.0,3510.0,518.0,2992.0,993.0,1992.0,526.0
27,391.1331228,3.507933,1,28,1,2,2,2,4,1,-35,2.0,0.3834518,321758.0,325267.0,324658.0,0.0,324658.0,0.0,322276.0,324267.0,322276.0,325267.0,324274.0,325267.0,3509.0,518.0,2991.0,993.0,1991.0,384.0
28,394.6493637,3.5078981,1,29,1,1,1,2,5,1,-40,2.0,0.3333645,325274.0,328783.0,328125.0,0.0,328125.0,0.0,325792.0,327783.0,325792.0,328783.0,327790.0,328784.0,3509.0,518.0,2991.0,994.0,1991.0,335.0
29,398.1655945,3.5079341,1,30,1,1,2,1,3,1,-40,1.0,-0.2082223,328790.0,332300.0,331099.0,331099.0,0.0,0.0,329308.0,331299.0,329308.0,332300.0,331306.0,332300.0,3510.0,518.0,2992.0,994.0,1991.0,-207.0
30,401.6818638,3.5079177,1,31,1,2,1,1,5,1,-35,1.0,0.1251928,332306.0,335816.0,334949.0,334949.0,0.0,0.0,332824.0,334815.0,332824.0,335816.0,334822.0,335816.0,3510.0,518.0,2992.0,994.0,1991.0,127.0
31,405.1981044,3.5079449,1,32,1,2,1,2,1,2,-45,1.0,-0.2909459,335822.0,339332.0,338050.0,338050.0,0.0,0.0,336341.0,338332.0,336341.0,339333.0,338339.0,339333.0,3510.0,519.0,2992.0,994.0,1991.0,-289.0
32,408.7144878,3.5079467,1,33,1,2,1,1,1,1,-30,2.0,-0.1163983,339339.0,342849.0,341740.0,0.0,341740.0,0.0,339857.0,341848.0,339857.0,342849.0,341855.0,342849.0,3510.0,518.0,2992.0,994.0,1991.0,-115.0
33,412.2306512,3.5078891,1,34,1,2,2,2,5,1,-40,1.0,0.0253497,342855.0,346364.0,345398.0,345398.0,0.0,0.0,343373.0,345364.0,343373.0,346364.0,345371.0,346364.0,3509.0,518.0,2991.0,993.0,1991.0,27.0
34,415.7468789,3.5080462,1,35,1,1,1,1,3,2,-35,2.0,-0.2164139,346371.0,349881.0,348673.0,0.0,348673.0,0.0,346890.0,348881.0,346890.0,349881.0,348887.0,349881.0,3510.0,519.0,2991.0,994.0,1991.0,-214.0
35,419.2631448,3.5078981,1,36,1,2,1,1,1,2,-40,1.0,0.325133,349887.0,353397.0,352731.0,352731.0,0.0,0.0,350406.0,352397.0,350406.0,353397.0,352404.0,353397.0,3510.0,519.0,2991.0,993.0,1991.0,327.0
36,422.7793794,3.5079211,1,37,1,1,1,1,3,1,-35,2.0,0.1171344,353404.0,356913.0,356038.0,0.0,356038.0,0.0,353921.0,355913.0,353921.0,356913.0,355920.0,356913.0,3509.0,517.0,2992.0,993.0,1992.0,118.0
37,426.3039645,3.5079228,1,38,1,1,1,1,2,1,-40,2.0,0.1423031,356930.0,360437.0,359589.0,0.0,359589.0,0.0,357447.0,359438.0,357447.0,360437.0,359445.0,360437.0,3507.0,517.0,2990.0,992.0,1991.0,144.0
38,429.8202376,3.507917,1,39,1,2,2,2,3,2,-35,2.0,-0.1415707,360444.0,363953.0,362821.0,0.0,362821.0,0.0,360963.0,362954.0,360963.0,363953.0,362961.0,363954.0,3509.0,519.0,2990.0,993.0,1991.0,-140.0
39,433.3364677,3.5079214,1,40,1,1,2,1,2,2,-45,1.0,-0.3830938,363960.0,367470.0,366095.0,366095.0,0.0,0.0,364478.0,366470.0,364478.0,367470.0,366477.0,367470.0,3510.0,518.0,2992.0,993.0,1992.0,-382.0
40,436.8527483,3.5078789,1,41,1,2,2,2,3,1,-40,2.0,-0.4747877,367477.0,370986.0,369520.0,0.0,369520.0,0.0,367994.0,369986.0,367994.0,370986.0,369993.0,370986.0,3509.0,517.0,2992.0,993.0,1992.0,-473.0
41,440.3689511,3.507903,1,42,1,2,1,1,1,1,-40,1.0,-0.4496929,370993.0,374502.0,373061.0,373061.0,0.0,0.0,371511.0,373503.0,371511.0,374503.0,373509.0,374503.0,3509.0,518.0,2992.0,994.0,1992.0,-448.0
42,443.8852305,3.5078958,1,43,1,2,1,1,5,1,-35,2.0,-0.006071,374509.0,378019.0,377019.0,0.0,377019.0,0.0,375027.0,377019.0,375027.0,378019.0,377025.0,378019.0,3510.0,518.0,2992.0,994.0,1992.0,-6.0
43,447.4014356,3.5079044,1,44,1,2,2,2,2,1,-45,2.0,-0.0164315,378025.0,381535.0,380526.0,0.0,380526.0,0.0,378543.0,380533.0,378544.0,381535.0,380543.0,381535.0,3510.0,519.0,2991.0,992.0,1990.0,-17.0
44,450.9176866,3.5079328,1,45,1,1,2,2,5,2,-50,1.0,0.0253747,381542.0,385051.0,384085.0,384085.0,0.0,0.0,382060.0,384052.0,382060.0,385051.0,384058.0,385051.0,3509.0,518.0,2991.0,993.0,1992.0,27.0
45,454.4340096,3.5079111,1,46,1,2,1,2,5,1,-45,1.0,-0.3830608,385058.0,388568.0,387192.0,387192.0,0.0,0.0,385576.0,387567.0,385576.0,388568.0,387574.0,388568.0,3510.0,518.0,2992.0,994.0,1991.0,-382.0
46,457.9502639,3.5078799,1,47,1,2,1,1,5,1,-40,1.0,-0.2328788,388574.0,392084.0,390859.0,390859.0,0.0,0.0,389092.0,391083.0,389092.0,392084.0,391090.0,392084.0,3510.0,518.0,2992.0,994.0,1991.0,-231.0
47,461.4664638,3.5079194,1,48,1,2,2,2,1,1,-40,2.0,-0.3413145,392090.0,395600.0,394267.0,0.0,394267.0,0.0,392609.0,394600.0,392609.0,395600.0,394607.0,395600.0,3510.0,519.0,2991.0,993.0,1991.0,-340.0
48,464.982735,3.5078849,1,49,1,1,2,2,4,1,-45,1.0,-0.4579773,395607.0,399116.0,397666.0,397666.0,0.0,0.0,396125.0,398116.0,396125.0,399117.0,398123.0,399117.0,3509.0,518.0,2992.0,994.0,1991.0,-457.0
49,468.4989715,3.5079186,1,50,1,2,2,1,4,2,-35,2.0,-0.4662473,399123.0,402633.0,401174.0,0.0,401174.0,0.0,399641.0,401632.0,399641.0,402633.0,401639.0,402633.0,3510.0,518.0,2992.0,994.0,1991.0,-465.0
50,472.0152217,3.5079857,1,51,1,2,1,1,2,1,-40,2.0,-0.698221893,402639.0,406148.0,404459.0,0.0,404459.0,0.0,403157.0,405148.0,403157.0,406148.0,405157.0,406148.0,3509.0,518.0,2991.0,991.0,1991.0,-698.0
51,475.5400252,3.507921385,1,52,1,1,2,1,3,2,-45,1.0,-0.5405962,406166.0,409674.0,408141.0,408141.0,0.0,0.0,406683.0,408675.0,406683.0,409674.0,408680.0,409674.0,3508.0,517.0,2991.0,994.0,1992.0,-539.0
52,479.0562324,3.51627624,1,53,1,2,1,2,3,2,-40,1.0,-0.05744101001,409680.0,413199.0,412149.0,412149.0,0.0,0.0,410198.0,412195.0,410198.0,413199.0,412205.0,413199.0,3519.0,518.0,3001.0,994.0,1997.0,-56.0
53,482.5890907,3.507794,1,54,1,2,1,1,4,1,-40,1.0,-0.5911317,413215.0,416722.0,415140.0,415140.0,0.0,0.0,413732.0,415722.0,413732.0,416722.0,415729.0,416722.0,3507.0,517.0,2990.0,993.0,1990.0,-589.0
54,486.1052169,3.5079074,1,55,1,1,2,1,3,1,-35,1.0,0.708407,416729.0,420238.0,419955.0,419955.0,0.0,0.0,417247.0,419239.0,417247.0,420238.0,419245.0,420238.0,3509.0,518.0,2991.0,993.0,1992.0,710.0
55,489.6214967,3.5078969,1,56,1,1,1,1,3,2,-30,2.0,0.291933,420245.0,423754.0,423055.0,0.0,423055.0,0.0,420763.0,422755.0,420763.0,423754.0,422762.0,423755.0,3509.0,518.0,2991.0,993.0,1992.0,293.0
56,493.137707,3.5079345,1,57,1,2,1,2,4,2,-35,2.0,-0.0247969,423761.0,427271.0,426254.0,0.0,426254.0,0.0,424279.0,426271.0,424279.0,427271.0,426278.0,427271.0,3510.0,518.0,2992.0,993.0,1992.0,-24.0
57,496.6539732,3.5078975,1,58,1,1,1,1,2,2,-35,2.0,-0.358031,427277.0,430787.0,429438.0,0.0,429438.0,0.0,427796.0,429787.0,427796.0,430787.0,429794.0,430787.0,3510.0,519.0,2991.0,993.0,1991.0,-356.0
58,500.1702057,3.5079812,1,59,1,1,2,2,1,1,-40,1.0,-0.416171,430794.0,434303.0,432895.0,432895.0,0.0,0.0,431312.0,433303.0,431312.0,434303.0,433310.0,434304.0,3509.0,518.0,2991.0,994.0,1991.0,-415.0
59,503.6864643,3.5078991,1,60,1,2,2,2,2,2,-35,2.0,-0.6829761,434310.0,437820.0,436144.0,0.0,436144.0,0.0,434828.0,436819.0,434828.0,437820.0,436826.0,437820.0,3510.0,518.0,2992.0,994.0,1991.0,-682.0
60,507.2026972,3.5079337,1,61,1,2,2,2,4,2,-40,2.0,0.2334705,437826.0,441336.0,440577.0,0.0,440577.0,0.0,438344.0,440337.0,438344.0,441336.0,440342.0,441336.0,3510.0,518.0,2992.0,994.0,1993.0,235.0
61,510.718976,3.5079319,1,62,1,2,2,1,5,2,-40,2.0,0.1168393,441342.0,444852.0,443977.0,0.0,443977.0,0.0,441861.0,443852.0,441861.0,444852.0,443859.0,444852.0,3510.0,519.0,2991.0,993.0,1991.0,118.0
62,514.2352128,3.5079478,1,63,1,2,1,2,4,1,-45,1.0,0.6417577,444858.0,448367.0,448018.0,448018.0,0.0,0.0,445377.0,447368.0,445377.0,448368.0,447375.0,448368.0,3509.0,519.0,2991.0,993.0,1991.0,643.0
63,517.7514913,3.5079307,1,64,1,2,2,1,3,2,-45,1.0,0.6417363,448375.0,451884.0,451534.0,451534.0,0.0,0.0,448893.0,450884.0,448893.0,451884.0,450891.0,451884.0,3509.0,518.0,2991.0,993.0,1991.0,643.0
64,521.2677552,3.5079534,1,65,1,2,2,2,5,2,-40,2.0,-0.1081145,451891.0,455400.0,454301.0,0.0,454301.0,0.0,452410.0,454401.0,452410.0,455400.0,454407.0,455400.0,3509.0,519.0,2990.0,993.0,1991.0,-106.0
65,524.7839923,3.5079199,1,66,1,1,2,1,4,1,-40,1.0,-0.2247518,455407.0,458916.0,457700.0,457700.0,0.0,0.0,455925.0,457917.0,455925.0,458917.0,457924.0,458917.0,3509.0,518.0,2992.0,993.0,1992.0,-224.0
66,528.3002425,3.5079018,1,67,1,1,1,2,1,2,-45,1.0,-0.5163174,458923.0,462433.0,460926.0,460926.0,0.0,0.0,459441.0,461433.0,459441.0,462433.0,461440.0,462433.0,3510.0,518.0,2992.0,993.0,1992.0,-514.0
67,531.8164802,3.5079447,1,68,1,1,1,2,1,2,-40,2.0,-0.516375,462440.0,465949.0,464441.0,0.0,464441.0,0.0,462958.0,464950.0,462958.0,465949.0,464956.0,465949.0,3509.0,518.0,2991.0,993.0,1992.0,-515.0
68,535.3327329,3.5078995,1,69,1,1,2,1,4,2,-35,2.0,-0.3913774,465956.0,469465.0,468082.0,0.0,468082.0,0.0,466474.0,468466.0,466474.0,469465.0,468472.0,469466.0,3509.0,518.0,2991.0,994.0,1992.0,-390.0
69,538.8489778,3.5079215,1,70,1,2,1,1,4,1,-40,2.0,-0.2747767,469472.0,472982.0,471715.0,0.0,471715.0,0.0,469990.0,471982.0,469990.0,472982.0,471989.0,472982.0,3510.0,518.0,2992.0,993.0,1992.0,-274.0
70,542.3652306,3.5079265,1,71,1,2,1,2,3,2,-45,2.0,-0.0330649,472988.0,476498.0,475473.0,0.0,475473.0,0.0,473506.0,475498.0,473506.0,476498.0,475505.0,476498.0,3510.0,518.0,2992.0,993.0,1992.0,-32.0
71,545.8814909,3.5080393,1,72,1,2,2,2,3,2,-50,2.0,0.3585045,476505.0,480014.0,479381.0,0.0,479381.0,0.0,477023.0,479014.0,477023.0,480015.0,479021.0,480015.0,3509.0,518.0,2992.0,994.0,1991.0,360.0
72,549.3977634,3.5079004,1,73,1,2,1,1,3,1,-45,1.0,0.1335121,480021.0,483531.0,482672.0,482672.0,0.0,0.0,480539.0,482531.0,480539.0,483531.0,482537.0,483531.0,3510.0,518.0,2992.0,994.0,1992.0,135.0
73,552.9141224,3.5078109,1,74,1,1,1,2,3,1,-55,1.0,-0.016396,483537.0,487047.0,486038.0,486038.0,0.0,0.0,484055.0,486045.0,484055.0,487047.0,486055.0,487047.0,3510.0,518.0,2992.0,992.0,1990.0,-17.0
74,556.4302487,3.5079217,1,75,1,2,2,2,1,2,-50,2.0,-0.466417,487053.0,490563.0,489105.0,0.0,489105.0,0.0,487572.0,489563.0,487572.0,490564.0,489570.0,490564.0,3510.0,519.0,2992.0,994.0,1991.0,-465.0
75,559.9466345,3.5078063,1,76,1,1,2,2,2,2,-55,1.0,-0.3497613,490570.0,494079.0,492738.0,492738.0,0.0,0.0,491088.0,493079.0,491088.0,494080.0,493086.0,494080.0,3509.0,518.0,2992.0,994.0,1991.0,-348.0
76,563.4627745,3.507915,1,77,1,1,1,2,1,2,-50,1.0,-0.1330996,494086.0,497595.0,496470.0,496470.0,0.0,0.0,494604.0,496595.0,494604.0,497595.0,496602.0,497595.0,3509.0,518.0,2991.0,993.0,1991.0,-132.0
77,566.979028,3.5079137,1,78,1,1,1,1,1,1,-40,1.0,-0.4413825,497602.0,501111.0,499679.0,499679.0,0.0,0.0,498120.0,500111.0,498120.0,501111.0,500118.0,501111.0,3509.0,518.0,2991.0,993.0,1991.0,-439.0
78,570.4952617,3.5079427,1,79,1,2,2,2,1,1,-45,2.0,-0.5747149,501118.0,504627.0,503061.0,0.0,503061.0,0.0,501637.0,503628.0,501637.0,504627.0,503635.0,504628.0,3509.0,519.0,2990.0,993.0,1991.0,-574.0
79,574.0115776,3.5078579,1,80,1,1,2,2,1,2,-50,1.0,-0.9079791,504635.0,508144.0,506245.0,506245.0,0.0,0.0,505152.0,507144.0,505152.0,508144.0,507151.0,508144.0,3509.0,517.0,2992.0,993.0,1992.0,-906.0
80,577.5277586,3.5078922,1,81,1,2,2,2,2,2,-45,2.0,-0.4497487,508151.0,511660.0,510219.0,0.0,510219.0,0.0,508668.0,510660.0,508668.0,511660.0,510667.0,511660.0,3509.0,517.0,2992.0,993.0,1992.0,-448.0
81,581.0440173,3.5078994,1,82,1,1,1,1,4,1,-35,2.0,-0.4246556,511667.0,515176.0,513760.0,0.0,513760.0,0.0,512184.0,514177.0,512185.0,515176.0,514183.0,515176.0,3509.0,518.0,2991.0,993.0,1993.0,-423.0
82,584.5602461,3.5078984,1,83,1,1,2,2,5,2,-50,1.0,-0.8663407,515183.0,518693.0,516834.0,516834.0,0.0,0.0,515701.0,517693.0,515701.0,518693.0,517699.0,518693.0,3510.0,518.0,2992.0,994.0,1992.0,-865.0
83,588.0764965,3.5079111,1,84,1,2,1,1,5,2,-40,2.0,-0.6324354,518699.0,522209.0,520585.0,0.0,520585.0,0.0,519217.0,521209.0,519217.0,522209.0,521216.0,522209.0,3510.0,518.0,2992.0,993.0,1992.0,-631.0
84,591.5927403,3.4995833,1,85,1,1,1,2,3,1,-45,1.0,-0.6413663,522216.0,525716.0,524084.0,524084.0,0.0,0.0,522726.0,524717.0,522726.0,525717.0,524724.0,525717.0,3500.0,510.0,2991.0,993.0,1991.0,-640.0
85,595.1007481,3.5078459,1,86,1,1,2,1,1,1,-45,1.0,-0.2580988,525724.0,529232.0,527983.0,527983.0,0.0,0.0,526242.0,528233.0,526242.0,529233.0,528240.0,529233.0,3508.0,518.0,2991.0,993.0,1991.0,-257.0
86,598.6168742,3.50814931,1,87,1,2,1,2,3,2,-40,2.0,-0.3912475,529240.0,532750.0,531366.0,0.0,531366.0,0.0,529758.0,531749.0,529758.0,532750.0,531756.0,532750.0,3510.0,518.0,2992.0,994.0,1991.0,-390.0
87,602.1331495,3.5078946,1,88,1,2,2,2,2,1,-45,1.0,-0.2330472,532756.0,536265.0,535041.0,535041.0,0.0,0.0,533274.0,535265.0,533275.0,536265.0,535272.0,536266.0,3509.0,519.0,2990.0,994.0,1991.0,-231.0
88,605.6495045,3.5078095,1,89,1,1,2,2,1,2,-40,1.0,-0.458058,536272.0,539781.0,538332.0,538332.0,0.0,0.0,536790.0,538782.0,536790.0,539781.0,538788.0,539781.0,3509.0,518.0,2991.0,993.0,1992.0,-456.0
89,609.1656417,3.5079249,1,90,1,2,1,2,3,1,-35,2.0,-1.0162993,539788.0,543298.0,541290.0,0.0,541290.0,0.0,540306.0,542298.0,540306.0,543298.0,542305.0,543298.0,3510.0,518.0,2992.0,993.0,1992.0,-1015.0
90,612.6818925,3.5079038,1,91,1,1,1,2,5,1,-40,2.0,-0.7830331,543304.0,546814.0,545040.0,0.0,545040.0,0.0,543822.0,545814.0,543822.0,546814.0,545821.0,546814.0,3510.0,518.0,2992.0,993.0,1992.0,-781.0
91,616.1981316,3.5080474,1,92,1,2,1,1,1,1,-40,2.0,-0.766288,546821.0,550330.0,548572.0,0.0,548572.0,0.0,547339.0,549331.0,547339.0,550331.0,549337.0,550331.0,3509.0,518.0,2992.0,994.0,1992.0,-765.0
92,619.7145736,3.5077109,1,93,1,2,1,1,4,1,-45,2.0,-0.8830908,550337.0,553847.0,551971.0,0.0,551971.0,0.0,550855.0,552846.0,550855.0,553847.0,552853.0,553847.0,3510.0,518.0,2992.0,994.0,1991.0,-882.0
93,623.2306201,3.5078827,1,94,1,2,2,2,5,1,-45,2.0,-0.1914307,553853.0,557363.0,556179.0,0.0,556179.0,0.0,554371.0,556362.0,554371.0,557363.0,556369.0,557363.0,3510.0,518.0,2992.0,994.0,1991.0,-190.0
94,626.7468485,3.5079214,1,95,1,2,2,1,2,2,-50,1.0,0.2916747,557369.0,560879.0,560180.0,560180.0,0.0,0.0,557888.0,559879.0,557888.0,560879.0,559886.0,560879.0,3510.0,519.0,2991.0,993.0,1991.0,294.0
95,630.2631001,3.5079147,1,96,1,1,1,1,3,2,-45,2.0,0.0668923,560885.0,564395.0,563470.0,0.0,563470.0,0.0,561404.0,563395.0,561404.0,564396.0,563402.0,564396.0,3510.0,519.0,2992.0,994.0,1991.0,68.0
96,633.7793446,3.5079228,1,97,1,2,1,1,5,2,-50,1.0,-0.5247486,564402.0,567912.0,566394.0,566394.0,0.0,0.0,564920.0,566911.0,564920.0,567912.0,566918.0,567912.0,3510.0,518.0,2992.0,994.0,1991.0,-524.0
97,637.2956033,3.5079125,1,98,1,1,2,2,5,2,-50,1.0,-0.4662485,567918.0,571427.0,569970.0,569970.0,0.0,0.0,568436.0,570427.0,568436.0,571427.0,570434.0,571427.0,3509.0,518.0,2991.0,993.0,1991.0,-464.0
98,640.811843,3.5079018,1,99,1,2,1,1,4,1,-45,2.0,-0.8246712,571434.0,574943.0,573127.0,0.0,573127.0,0.0,571953.0,573944.0,571953.0,574943.0,573951.0,574944.0,3509.0,519.0,2990.0,993.0,1991.0,-824.0
99,644.3280622,3.5078931,1,100,1,1,2,2,4,2,-45,1.0,-0.7412681,574950.0,578460.0,576727.0,576727.0,0.0,0.0,575469.0,577460.0,575469.0,578460.0,577467.0,578460.0,3510.0,519.0,2991.0,993.0,1991.0,-740.0
100,776.2099097,3.7243021,2,1,1,2,1,2,3,1,-65,n/a,n/a,706834.0,710557.0,0.0,0.0,0.0,0.0,707566.0,709558.0,707566.0,710558.0,709564.0,710558.0,3723.0,732.0,2992.0,994.0,1992.0,-709564.0
101,779.9425543,3.5078176,2,2,1,1,1,1,2,2,-15,2.0,0.4587143,710564.0,714074.0,713541.0,0.0,713541.0,0.0,711082.0,713074.0,711083.0,714074.0,713080.0,714074.0,3510.0,519.0,2991.0,994.0,1992.0,461.0
102,783.4587155,3.7661525,2,3,1,1,2,2,5,1,-65,1.0,-0.3828696,714080.0,717848.0,716473.0,716473.0,0.0,0.0,714857.0,716848.0,714858.0,717848.0,716855.0,717848.0,3768.0,778.0,2990.0,993.0,1991.0,-382.0
103,787.2331997,3.5077884,2,4,1,1,2,1,2,2,-20,2.0,-0.515867,717855.0,721364.0,719857.0,0.0,719857.0,0.0,718373.0,720364.0,718373.0,721364.0,720371.0,721364.0,3509.0,518.0,2991.0,993.0,1991.0,-514.0
104,790.7493181,3.5161894,2,5,1,1,2,1,1,1,-25,2.0,-0.7411907,721371.0,724888.0,723155.0,0.0,723155.0,0.0,721898.0,723889.0,721899.0,724889.0,723896.0,724890.0,3517.0,528.0,2990.0,994.0,1991.0,-741.0
105,794.2738503,3.5078033,2,6,1,1,2,2,3,2,-60,1.0,-0.374026,724895.0,728405.0,727039.0,727039.0,0.0,0.0,725413.0,727405.0,725413.0,728405.0,727411.0,728405.0,3510.0,518.0,2992.0,994.0,1992.0,-372.0
106,797.7900167,3.5078211,2,7,1,1,1,1,2,2,-30,2.0,-0.0661705,728411.0,731921.0,730862.0,0.0,730862.0,0.0,728929.0,730920.0,728929.0,731921.0,730928.0,731921.0,3510.0,518.0,2992.0,993.0,1991.0,-66.0
107,801.3061333,3.5078864,2,8,1,2,1,2,3,2,-55,1.0,-0.2413287,731927.0,735437.0,734204.0,734204.0,0.0,0.0,732446.0,734437.0,732446.0,735438.0,734444.0,735438.0,3510.0,519.0,2992.0,994.0,1991.0,-240.0
108,804.8223397,3.5078263,2,9,1,1,1,1,5,1,-35,2.0,-0.0824204,735444.0,738953.0,737879.0,0.0,737879.0,0.0,735962.0,737953.0,735962.0,738953.0,737960.0,738953.0,3509.0,518.0,2991.0,993.0,1991.0,-81.0
109,808.3384982,3.5078147,2,10,1,2,1,2,4,2,-50,1.0,0.4503642,738960.0,742469.0,741928.0,741928.0,0.0,0.0,739478.0,741469.0,739478.0,742469.0,741476.0,742469.0,3509.0,518.0,2991.0,993.0,1991.0,452.0
110,811.8546457,3.5077856,2,11,1,2,1,1,3,1,-40,2.0,-0.0164182,742476.0,745985.0,744978.0,0.0,744978.0,0.0,742994.0,744984.0,742994.0,745985.0,744994.0,745985.0,3509.0,518.0,2991.0,991.0,1990.0,-16.0
111,815.370759,3.507853,2,12,1,1,1,1,3,2,-45,1.0,0.4425576,745992.0,749501.0,748953.0,748953.0,0.0,0.0,746510.0,748501.0,746510.0,749502.0,748508.0,749502.0,3509.0,518.0,2992.0,994.0,1991.0,445.0
112,818.8869509,3.5078127,2,13,1,1,2,1,2,2,-40,1.0,-0.3329878,749508.0,753018.0,751693.0,751693.0,0.0,0.0,750026.0,752017.0,750026.0,753018.0,752024.0,753018.0,3510.0,518.0,2992.0,994.0,1991.0,-331.0
113,822.4031307,3.5078294,2,14,1,2,2,1,5,2,-35,2.0,-0.4997662,753024.0,756534.0,755043.0,0.0,755043.0,0.0,753542.0,755534.0,753543.0,756534.0,755541.0,756534.0,3510.0,519.0,2991.0,993.0,1992.0,-498.0
114,825.919276,3.5078133,2,15,1,2,1,1,1,2,-40,1.0,-0.6497163,756540.0,760049.0,758408.0,758408.0,0.0,0.0,757059.0,759050.0,757059.0,760049.0,759057.0,760050.0,3509.0,519.0,2990.0,993.0,1991.0,-649.0
115,829.4354518,3.5078438,2,16,1,2,1,1,2,1,-35,2.0,-0.474841,760056.0,763566.0,762099.0,0.0,762099.0,0.0,760574.0,762566.0,760574.0,763566.0,762573.0,763566.0,3510.0,518.0,2992.0,993.0,1992.0,-474.0
116,832.9516,3.5078286,2,17,1,1,2,1,4,2,-40,2.0,-0.6495477,763573.0,767082.0,765441.0,0.0,765441.0,0.0,764090.0,766082.0,764090.0,767082.0,766089.0,767082.0,3509.0,517.0,2992.0,993.0,1992.0,-648.0
117,836.4677748,3.5078146,2,18,1,1,2,2,2,1,-45,2.0,0.2253201,767089.0,770598.0,769832.0,0.0,769832.0,0.0,767607.0,769598.0,767607.0,770598.0,769605.0,770598.0,3509.0,518.0,2991.0,993.0,1991.0,227.0
118,839.9839108,3.574468,2,19,1,2,1,2,2,2,-50,1.0,0.7586943,770605.0,774181.0,773949.0,773949.0,0.0,0.0,771190.0,773181.0,771190.0,774181.0,773188.0,774181.0,3576.0,585.0,2991.0,993.0,1991.0,761.0
119,843.5667289,3.4994925,2,20,1,1,2,1,5,1,-45,2.0,-0.005982,774188.0,777689.0,776690.0,0.0,776690.0,0.0,774697.0,776689.0,774697.0,777689.0,776696.0,777689.0,3501.0,509.0,2992.0,993.0,1992.0,-6.0
120,847.0745411,3.5078312,2,21,1,1,2,2,2,1,-45,1.0,-0.108071,777695.0,781205.0,780106.0,780106.0,0.0,0.0,778213.0,780205.0,778214.0,781205.0,780212.0,781205.0,3510.0,519.0,2991.0,993.0,1992.0,-106.0
121,850.5907008,3.5078301,2,22,1,2,2,1,5,2,-50,2.0,0.025157,781212.0,784721.0,783755.0,0.0,783755.0,0.0,781730.0,783721.0,781730.0,784722.0,783728.0,784722.0,3509.0,518.0,2992.0,994.0,1991.0,27.0
122,854.1068609,3.507858,2,23,1,2,1,2,3,1,-40,1.0,-0.2247435,784728.0,788237.0,787021.0,787021.0,0.0,0.0,785246.0,787237.0,785246.0,788237.0,787244.0,788237.0,3509.0,518.0,2991.0,993.0,1991.0,-223.0
123,857.6230392,3.5078424,2,24,1,2,2,2,4,2,-35,2.0,0.2172625,788244.0,791753.0,790979.0,0.0,790979.0,0.0,788762.0,790754.0,788763.0,791753.0,790760.0,791753.0,3509.0,519.0,2990.0,993.0,1992.0,219.0
124,861.1392244,3.5077848,2,25,1,1,2,2,2,2,-40,1.0,-0.3163987,791760.0,795269.0,793961.0,793961.0,0.0,0.0,792278.0,794270.0,792278.0,795269.0,794276.0,795270.0,3509.0,518.0,2991.0,994.0,1992.0,-315.0
125,864.6553403,3.5078191,2,26,1,2,2,2,1,1,-35,2.0,-0.2497513,795276.0,798786.0,797544.0,0.0,797544.0,0.0,795794.0,797786.0,795794.0,798786.0,797792.0,798786.0,3510.0,518.0,2992.0,994.0,1992.0,-248.0
126,868.1715023,3.50783,2,27,1,2,1,2,3,1,-40,2.0,0.2584441,798792.0,802302.0,801568.0,0.0,801568.0,0.0,799310.0,801301.0,799310.0,802302.0,801308.0,802302.0,3510.0,518.0,2992.0,994.0,1991.0,260.0
127,871.687665,3.5078748,2,28,1,2,1,1,5,1,-55,1.0,-0.2247545,802308.0,805818.0,804602.0,804602.0,0.0,0.0,802827.0,804818.0,802827.0,805818.0,804825.0,805818.0,3510.0,519.0,2991.0,993.0,1991.0,-223.0
128,875.2038798,3.507825,2,29,1,1,2,2,5,1,-45,1.0,-0.2748741,805824.0,809334.0,808068.0,808068.0,0.0,0.0,806343.0,808334.0,806343.0,809334.0,808341.0,809334.0,3510.0,519.0,2991.0,993.0,1991.0,-273.0
129,878.7200241,3.5078415,2,30,1,2,1,2,5,1,-40,2.0,0.2916595,809341.0,812850.0,812150.0,0.0,812150.0,0.0,809859.0,811850.0,809859.0,812850.0,811857.0,812850.0,3509.0,518.0,2991.0,993.0,1991.0,293.0
130,882.2362172,3.5078481,2,31,1,1,1,2,1,2,-45,2.0,0.0335169,812857.0,816366.0,815409.0,0.0,815409.0,0.0,813375.0,815367.0,813375.0,816366.0,815373.0,816366.0,3509.0,518.0,2991.0,993.0,1992.0,36.0
131,885.7523632,3.5078871,2,32,1,1,1,2,5,2,-50,1.0,0.0251617,816373.0,819883.0,818916.0,818916.0,0.0,0.0,816891.0,818883.0,816891.0,819883.0,818889.0,819883.0,3510.0,518.0,2992.0,994.0,1992.0,27.0
132,889.2685231,3.5078183,2,33,1,1,1,2,3,2,-45,1.0,0.3251257,819889.0,823399.0,822732.0,822732.0,0.0,0.0,820407.0,822398.0,820407.0,823399.0,822405.0,823399.0,3510.0,518.0,2992.0,994.0,1991.0,327.0
133,892.7846569,3.5078537,2,34,1,2,2,1,2,1,-50,2.0,-0.0243763,823405.0,826915.0,825899.0,0.0,825899.0,0.0,823924.0,825915.0,823924.0,826915.0,825922.0,826915.0,3510.0,519.0,2991.0,993.0,1991.0,-23.0
134,896.3009832,3.5076981,2,35,1,2,2,1,1,2,-55,2.0,0.333442,826922.0,830430.0,829773.0,0.0,829773.0,0.0,827440.0,829431.0,827440.0,830430.0,829438.0,830431.0,3508.0,518.0,2990.0,993.0,1991.0,335.0
135,899.8170066,3.5078278,2,36,1,1,2,2,5,1,-40,2.0,0.1499985,830438.0,833947.0,833105.0,0.0,833105.0,0.0,830956.0,832947.0,830956.0,833947.0,832954.0,833947.0,3509.0,518.0,2991.0,993.0,1991.0,151.0
136,903.3331884,3.5078124,2,37,1,2,2,2,2,2,-45,2.0,0.1835936,833954.0,837463.0,836655.0,0.0,836655.0,0.0,834471.0,836463.0,834471.0,837463.0,836470.0,837463.0,3509.0,517.0,2992.0,993.0,1992.0,185.0
137,906.8493309,3.4994533,2,38,1,1,2,2,1,2,-50,2.0,0.141705,837470.0,840971.0,840121.0,0.0,840121.0,0.0,837980.0,839971.0,837980.0,840971.0,839978.0,840972.0,3501.0,510.0,2991.0,994.0,1991.0,143.0
138,910.3571451,3.5078434,2,39,1,2,2,2,1,2,-55,2.0,-0.158021,840978.0,844487.0,843337.0,0.0,843337.0,0.0,841496.0,843487.0,841496.0,844487.0,843494.0,844487.0,3509.0,518.0,2991.0,993.0,1991.0,-157.0
139,913.8734436,3.5077072,2,40,1,2,2,1,1,2,-60,1.0,0.2168256,844494.0,848003.0,847228.0,847228.0,0.0,0.0,845012.0,847003.0,845013.0,848003.0,847010.0,848003.0,3509.0,519.0,2990.0,993.0,1991.0,218.0
140,917.3894748,3.5078247,2,41,1,2,2,1,1,2,-55,1.0,0.7584048,848010.0,851519.0,851286.0,851286.0,0.0,0.0,848528.0,850520.0,848528.0,851519.0,850526.0,851519.0,3509.0,518.0,2991.0,993.0,1992.0,760.0
141,920.9056429,3.5078677,2,42,1,1,1,2,4,2,-60,1.0,0.3334545,851526.0,855036.0,854378.0,854378.0,0.0,0.0,852044.0,854036.0,852044.0,855036.0,854042.0,855036.0,3510.0,518.0,2992.0,994.0,1992.0,336.0
142,924.4218052,3.5077985,2,43,1,2,2,1,4,1,-50,2.0,-0.5748294,855042.0,858552.0,856986.0,0.0,856986.0,0.0,855560.0,857551.0,855560.0,858552.0,857559.0,858552.0,3510.0,518.0,2992.0,993.0,1991.0,-573.0
143,927.9379225,3.5078508,2,44,1,2,1,2,2,1,-55,1.0,-0.2747533,858558.0,862068.0,860802.0,860802.0,0.0,0.0,859077.0,861068.0,859077.0,862068.0,861075.0,862069.0,3510.0,519.0,2991.0,994.0,1991.0,-273.0
144,931.4541659,3.5077943,2,45,1,1,2,1,3,2,-55,1.0,-0.7663486,862075.0,865583.0,863826.0,863826.0,0.0,0.0,862593.0,864584.0,862593.0,865584.0,864591.0,865584.0,3508.0,518.0,2991.0,993.0,1991.0,-765.0
145,934.970258,3.5078835,2,46,1,2,2,2,1,2,-50,1.0,0.2002427,865591.0,869100.0,868309.0,868309.0,0.0,0.0,866109.0,868100.0,866109.0,869100.0,868107.0,869100.0,3509.0,518.0,2991.0,993.0,1991.0,202.0
146,938.4864585,3.5078279,2,47,1,2,1,2,1,2,-45,1.0,-0.0746909,869107.0,872616.0,871550.0,871550.0,0.0,0.0,869624.0,871616.0,869625.0,872616.0,871623.0,872616.0,3509.0,518.0,2991.0,993.0,1992.0,-73.0
147,942.0026053,3.5078441,2,48,1,1,2,1,5,2,-50,1.0,-1.024633,872623.0,876132.0,874116.0,874116.0,0.0,0.0,873141.0,875133.0,873141.0,876133.0,875139.0,876133.0,3509.0,518.0,2992.0,994.0,1992.0,-1023.0
148,945.5189081,3.5077919,2,49,1,2,1,2,3,1,-40,1.0,-0.3412117,876139.0,879649.0,878315.0,878315.0,0.0,0.0,876657.0,878648.0,876657.0,879649.0,878655.0,879649.0,3510.0,518.0,2992.0,994.0,1991.0,-340.0
149,949.0349865,3.5077872,2,50,1,2,1,1,5,2,-45,1.0,-0.2080021,879655.0,883165.0,881965.0,881965.0,0.0,0.0,880173.0,882164.0,880173.0,883165.0,882171.0,883165.0,3510.0,518.0,2992.0,994.0,1991.0,-206.0
150,952.5511048,3.5078284,2,51,1,1,1,1,1,1,-40,2.0,-0.8248396,883171.0,886680.0,884864.0,0.0,884864.0,0.0,883690.0,885682.0,883690.0,886680.0,885688.0,886680.0,3509.0,519.0,2990.0,992.0,1992.0,-824.0
151,956.0672689,3.5078277,2,52,1,1,1,2,1,1,-35,2.0,-1.0413006,886687.0,890197.0,888164.0,0.0,888164.0,0.0,887206.0,889197.0,887206.0,890197.0,889204.0,890197.0,3510.0,519.0,2991.0,993.0,1991.0,-1040.0
152,959.5834336,3.507816,2,53,1,2,2,1,2,1,-45,2.0,-0.7579625,890204.0,893713.0,891964.0,0.0,891964.0,0.0,890721.0,892713.0,890721.0,893713.0,892720.0,893713.0,3509.0,517.0,2992.0,993.0,1992.0,-756.0
153,963.09958,3.5078308,2,54,1,1,2,1,2,1,-50,1.0,-1.0658426,893720.0,897229.0,895172.0,895172.0,0.0,0.0,894238.0,896230.0,894238.0,897229.0,896236.0,897229.0,3509.0,518.0,2991.0,993.0,1992.0,-1064.0
154,966.6157733,3.507799,2,55,1,2,2,2,3,1,-40,2.0,-0.2829913,897236.0,900745.0,899471.0,0.0,899471.0,0.0,897754.0,899745.0,897754.0,900746.0,899752.0,900746.0,3509.0,518.0,2992.0,994.0,1991.0,-281.0
155,970.1319055,3.5078562,2,56,1,1,2,2,5,1,-45,2.0,-0.2247355,900752.0,904262.0,903045.0,0.0,903045.0,0.0,901270.0,903261.0,901270.0,904262.0,903268.0,904262.0,3510.0,518.0,2992.0,994.0,1991.0,-223.0
156,973.6480956,3.5078229,2,57,1,1,1,2,3,2,-50,1.0,-0.8248003,904268.0,907777.0,905961.0,905961.0,0.0,0.0,904786.0,906778.0,904787.0,907777.0,906785.0,907777.0,3509.0,519.0,2990.0,992.0,1992.0,-824.0
157,977.1642456,3.507843,2,58,1,1,2,1,1,2,-45,1.0,-0.8579834,907784.0,911293.0,909444.0,909444.0,0.0,0.0,908303.0,910294.0,908303.0,911294.0,910301.0,911294.0,3509.0,519.0,2991.0,993.0,1991.0,-857.0
158,980.6805283,3.5077234,2,59,1,1,1,2,3,1,-45,2.0,-0.4496682,911301.0,914810.0,913368.0,0.0,913368.0,0.0,911818.0,913810.0,911818.0,914810.0,913817.0,914810.0,3509.0,517.0,2992.0,993.0,1992.0,-449.0
159,984.1965883,3.5078149,2,60,1,1,1,1,4,1,-40,2.0,-0.1665368,914817.0,918326.0,917168.0,0.0,917168.0,0.0,915334.0,917326.0,915334.0,918326.0,917333.0,918326.0,3509.0,517.0,2992.0,993.0,1992.0,-165.0
160,987.7127326,3.5078262,2,61,1,1,2,2,2,2,-50,1.0,-0.399725,918333.0,921842.0,920451.0,920451.0,0.0,0.0,918851.0,920843.0,918851.0,921842.0,920849.0,921842.0,3509.0,518.0,2991.0,993.0,1992.0,-398.0
161,991.2288958,3.5078049,2,62,1,2,2,1,1,2,-45,2.0,-0.3912099,921849.0,925358.0,923976.0,0.0,923976.0,0.0,922367.0,924359.0,922367.0,925358.0,924365.0,925358.0,3509.0,518.0,2991.0,993.0,1992.0,-389.0
162,994.7450367,3.5078537,2,63,1,2,1,1,1,2,-50,1.0,-0.5249434,925365.0,928875.0,927358.0,927358.0,0.0,0.0,925883.0,927875.0,925883.0,928875.0,927882.0,928875.0,3510.0,518.0,2992.0,993.0,1992.0,-524.0
163,998.2612258,3.5078255,2,64,1,1,1,2,1,2,-45,1.0,-0.1414064,928881.0,932391.0,931257.0,931257.0,0.0,0.0,929399.0,931391.0,929399.0,932391.0,931397.0,932391.0,3510.0,518.0,2992.0,994.0,1992.0,-140.0
164,1001.777402,3.5078155,2,65,1,1,2,1,5,2,-45,1.0,-0.232901,932397.0,935906.0,934682.0,934682.0,0.0,0.0,932916.0,934907.0,932916.0,935906.0,934914.0,935906.0,3509.0,519.0,2990.0,992.0,1991.0,-232.0
165,1005.293547,3.5078479,2,66,1,2,1,1,1,1,-40,2.0,-0.8746531,935913.0,939423.0,937556.0,0.0,937556.0,0.0,936432.0,938423.0,936432.0,939423.0,938430.0,939423.0,3510.0,519.0,2991.0,993.0,1991.0,-874.0
166,1008.809903,3.5076254,2,67,1,1,2,2,1,1,-40,1.0,-0.4330586,939430.0,942939.0,941515.0,941515.0,0.0,0.0,939947.0,941939.0,939947.0,942939.0,941946.0,942939.0,3509.0,517.0,2992.0,993.0,1992.0,-431.0
167,1012.325862,3.507826,2,68,1,2,2,1,1,1,-45,2.0,-0.2747123,942946.0,946455.0,945189.0,0.0,945189.0,0.0,943464.0,945456.0,943464.0,946455.0,945462.0,946455.0,3509.0,518.0,2991.0,993.0,1992.0,-273.0
168,1015.842026,3.5078285,2,69,1,1,2,2,1,1,-35,2.0,-0.2913801,946462.0,949971.0,948688.0,0.0,948688.0,0.0,946980.0,948971.0,946980.0,949972.0,948978.0,949972.0,3509.0,518.0,2992.0,994.0,1991.0,-290.0
169,1019.358175,3.5078224,2,70,1,1,2,1,4,2,-50,1.0,-0.5580418,949978.0,953488.0,951937.0,951937.0,0.0,0.0,950496.0,952487.0,950496.0,953488.0,952494.0,953488.0,3510.0,518.0,2992.0,994.0,1991.0,-557.0
170,1022.874459,3.5076935,2,71,1,1,1,2,1,1,-40,2.0,-0.599714,953494.0,957003.0,955412.0,0.0,955412.0,0.0,954013.0,956003.0,954013.0,957003.0,956010.0,957003.0,3509.0,519.0,2990.0,993.0,1990.0,-598.0
171,1026.390496,3.5078648,2,72,1,2,1,1,4,1,-45,2.0,0.05851,957010.0,960519.0,959587.0,0.0,959587.0,0.0,957529.0,959520.0,957529.0,960520.0,959526.0,960520.0,3509.0,519.0,2991.0,994.0,1991.0,61.0
172,1029.906693,3.5078409,2,73,1,1,2,2,3,2,-45,1.0,-0.6330024,960526.0,964036.0,962411.0,962411.0,0.0,0.0,961044.0,963036.0,961044.0,964036.0,963043.0,964036.0,3510.0,518.0,2992.0,993.0,1992.0,-632.0
173,1033.42287,3.5078283,2,74,1,1,1,1,1,2,-50,2.0,-0.1496515,964043.0,967552.0,966411.0,0.0,966411.0,0.0,964560.0,966552.0,964560.0,967552.0,966559.0,967552.0,3509.0,517.0,2992.0,993.0,1992.0,-148.0
174,1036.939024,3.5078236,2,75,1,1,2,2,5,2,-40,2.0,-0.5829884,967559.0,971068.0,969493.0,0.0,969493.0,0.0,968077.0,970068.0,968077.0,971068.0,970075.0,971068.0,3509.0,518.0,2991.0,993.0,1991.0,-582.0
175,1040.45518,3.5078219,2,76,1,1,1,2,1,2,-45,1.0,-0.3413778,971075.0,974585.0,973251.0,973251.0,0.0,0.0,971593.0,973584.0,971593.0,974585.0,973591.0,974585.0,3510.0,518.0,2992.0,994.0,1991.0,-340.0
176,1043.971324,3.5078547,2,77,1,1,1,1,1,1,-55,1.0,-0.1663432,974591.0,978100.0,976942.0,976942.0,0.0,0.0,975109.0,977100.0,975109.0,978100.0,977107.0,978100.0,3509.0,518.0,2991.0,993.0,1991.0,-165.0
177,1047.487523,3.5078199,2,78,1,1,2,1,1,1,-50,2.0,-1.0496439,978107.0,981616.0,979575.0,0.0,979575.0,0.0,978626.0,980617.0,978626.0,981617.0,980623.0,981617.0,3509.0,519.0,2991.0,994.0,1991.0,-1048.0
178,1051.003811,3.5076843,2,79,1,2,2,2,2,2,-40,2.0,-0.5497197,981624.0,985133.0,983591.0,0.0,983591.0,0.0,982141.0,984133.0,982141.0,985133.0,984139.0,985133.0,3509.0,517.0,2992.0,994.0,1992.0,-548.0
179,1054.51982,3.5078486,2,80,1,1,2,1,4,2,-55,1.0,-1.0245404,985139.0,988649.0,986633.0,986633.0,0.0,0.0,985657.0,987649.0,985657.0,988649.0,987656.0,988649.0,3510.0,518.0,2992.0,993.0,1992.0,-1023.0
180,1058.044356,3.5077951,2,81,1,1,2,2,5,2,-45,2.0,-1.1578703,988664.0,992173.0,990024.0,0.0,990024.0,0.0,989182.0,991174.0,989182.0,992173.0,991180.0,992173.0,3509.0,518.0,2991.0,993.0,1992.0,-1156.0
181,1061.560467,3.5078608,2,82,1,2,2,2,4,1,-50,2.0,-0.9163388,992180.0,995689.0,993781.0,0.0,993781.0,0.0,992698.0,994690.0,992698.0,995690.0,994696.0,995690.0,3509.0,518.0,2992.0,994.0,1992.0,-915.0
182,1065.07666,3.5078414,2,83,1,2,1,2,2,2,-55,1.0,-1.1829458,995696.0,999206.0,997031.0,997031.0,0.0,0.0,996214.0,998205.0,996214.0,999206.0,998212.0,999206.0,3510.0,518.0,2992.0,994.0,1991.0,-1181.0
183,1068.592967,3.5076947,2,84,1,1,1,2,5,2,-50,1.0,-1.0913041,999213.0,1002722.0,1000639.0,1000639.0,0.0,0.0,999730.0,1001721.0,999730.0,1002722.0,1001729.0,1002722.0,3509.0,517.0,2992.0,993.0,1991.0,-1090.0
184,1072.108986,3.5078482,2,85,1,2,1,2,2,1,-45,1.0,-0.9163092,1002728.0,1006237.0,1004330.0,1004330.0,0.0,0.0,1003247.0,1005238.0,1003247.0,1006238.0,1005245.0,1006238.0,3509.0,519.0,2991.0,993.0,1991.0,-915.0
185,1075.625322,3.5076643,2,86,1,1,1,1,2,2,-50,1.0,-0.2997396,1006245.0,1009754.0,1008462.0,1008462.0,0.0,0.0,1006763.0,1008754.0,1006763.0,1009754.0,1008761.0,1009754.0,3509.0,518.0,2991.0,993.0,1991.0,-299.0
186,1079.141318,3.5078465,2,87,1,2,1,1,1,1,-45,1.0,-0.5913378,1009761.0,1013270.0,1011687.0,1011687.0,0.0,0.0,1010278.0,1012270.0,1010279.0,1013270.0,1012277.0,1013270.0,3509.0,518.0,2991.0,993.0,1992.0,-590.0
187,1082.657496,3.5077888,2,88,1,2,1,1,5,2,-40,1.0,-0.416325,1013277.0,1016786.0,1015378.0,1015378.0,0.0,0.0,1013795.0,1015787.0,1013795.0,1016786.0,1015793.0,1016787.0,3509.0,518.0,2991.0,994.0,1992.0,-415.0
188,1086.173722,3.5077566,2,89,1,1,2,2,1,1,-40,2.0,-0.7493705,1016793.0,1020303.0,1018561.0,0.0,1018561.0,0.0,1017311.0,1019302.0,1017311.0,1020303.0,1019309.0,1020303.0,3510.0,518.0,2992.0,994.0,1991.0,-748.0
189,1089.689824,3.5078253,2,90,1,2,2,2,3,1,-45,2.0,-1.0579602,1020309.0,1023819.0,1021769.0,0.0,1021769.0,0.0,1020827.0,1022818.0,1020827.0,1023819.0,1022825.0,1023819.0,3510.0,518.0,2992.0,994.0,1991.0,-1056.0
190,1093.205978,3.5078295,2,91,1,1,1,1,1,1,-35,2.0,-0.432868,1023825.0,1027334.0,1025910.0,0.0,1025910.0,0.0,1024344.0,1026335.0,1024344.0,1027334.0,1026342.0,1027335.0,3509.0,519.0,2990.0,993.0,1991.0,-432.0
191,1096.722275,3.5078621,2,92,1,2,1,1,5,1,-40,2.0,-0.4247052,1027342.0,1030851.0,1029434.0,0.0,1029434.0,0.0,1027860.0,1029851.0,1027860.0,1030851.0,1029858.0,1030851.0,3509.0,518.0,2991.0,993.0,1991.0,-424.0
192,1100.238309,3.5078148,2,93,1,2,2,1,4,1,-45,2.0,-1.0413019,1030858.0,1034367.0,1032334.0,0.0,1032334.0,0.0,1031375.0,1033368.0,1031375.0,1034367.0,1033374.0,1034367.0,3509.0,517.0,2992.0,993.0,1993.0,-1040.0
193,1103.754453,3.4995173,2,94,1,1,1,1,4,1,-50,1.0,-1.1829447,1034374.0,1037874.0,1035700.0,1035700.0,0.0,0.0,1034884.0,1036875.0,1034884.0,1037874.0,1036882.0,1037875.0,3500.0,510.0,2990.0,993.0,1991.0,-1182.0
194,1107.262301,3.5078164,2,95,1,1,1,1,5,2,-45,2.0,-0.758151,1037881.0,1041391.0,1039642.0,0.0,1039642.0,0.0,1038400.0,1040391.0,1038400.0,1041391.0,1040398.0,1041391.0,3510.0,519.0,2991.0,993.0,1991.0,-756.0
195,1110.778418,3.5078717,2,96,1,2,1,2,1,1,-50,1.0,0.08356,1041398.0,1044907.0,1043999.0,1043999.0,0.0,0.0,1041916.0,1043907.0,1041916.0,1044908.0,1043914.0,1044908.0,3509.0,518.0,2992.0,994.0,1991.0,85.0
196,1114.294746,3.5077138,2,97,1,1,1,1,4,1,-50,1.0,-1.0245846,1044914.0,1048424.0,1046406.0,1046406.0,0.0,0.0,1045432.0,1047423.0,1045432.0,1048424.0,1047430.0,1048424.0,3510.0,518.0,2992.0,994.0,1991.0,-1024.0
197,1117.810923,3.5076776,2,98,1,2,2,1,1,1,-45,2.0,-1.0329999,1048430.0,1051939.0,1049915.0,0.0,1049915.0,0.0,1048948.0,1050939.0,1048948.0,1051939.0,1050946.0,1051939.0,3509.0,518.0,2991.0,993.0,1991.0,-1031.0
198,1121.327069,3.5077361,2,99,1,2,1,2,2,1,-45,1.0,-0.9330493,1051946.0,1055455.0,1053531.0,1053531.0,0.0,0.0,1052465.0,1054456.0,1052465.0,1055455.0,1054462.0,1055455.0,3509.0,519.0,2990.0,993.0,1991.0,-931.0
199,1124.843144,3.5079527,2,100,1,1,1,2,3,1,-40,2.0,-1.0829614,1055462.0,1058972.0,1056897.0,0.0,1056897.0,0.0,1055980.0,1057972.0,1055980.0,1058972.0,1057978.0,1058972.0,3510.0,518.0,2992.0,994.0,1992.0,-1081.0
