onset	duration	run_number	trial_number	task	ext_mot_pos	ext_mot_ver_dir	staircase_num	fix_off_prct	trial_type	ext_mot_ori	direction_report	response_duration
378.0352727	3.9078785	1	1	1	2	1	1	5	2	15	1	0.4004906
381.9599769	3.5077575	1	2	1	1	1	2	2	1	65	2	0.3835904
385.476196	3.507796	1	3	1	2	1	1	4	2	20	2	0.2836154
388.9923265	3.5079116	1	4	1	2	2	2	3	2	60	2	0.3669886
392.5085611	3.5163994	1	5	1	1	1	1	1	2	15	1	0.2842146
396.0414668	3.5079073	1	6	1	2	1	2	5	2	55	2	0.2421301
399.5577242	3.5079021	1	7	1	1	1	2	3	2	50	2	0.142633
403.0740028	3.5078889	1	8	1	1	1	2	2	1	45	2	0.3001247
406.590221	3.5079004	1	9	1	2	2	1	2	1	20	1	0.2252463
410.1064523	3.5079173	1	10	1	1	2	1	5	2	25	2	-0.1329055
413.6226882	3.5078815	1	11	1	1	1	2	4	1	40	2	0.3832934
417.1390468	3.5077822	1	12	1	2	1	2	5	2	35	2	0.2337731
420.6718372	3.5079169	1	13	1	2	1	2	3	2	30	2	0.2751406
424.1880863	3.5078995	1	14	1	1	2	1	4	2	20	1	0.1253406
427.7044472	3.5078235	1	15	1	2	2	1	5	2	25	2	0.3501147
431.2205697	3.5079511	1	16	1	2	1	1	1	2	20	1	0.2173695
434.7368441	3.5080735	1	17	1	2	2	2	3	1	25	2	-0.1082372
438.253102	3.5079105	1	18	1	1	1	1	4	2	25	1	0.0668853
441.7693339	3.5079087	1	19	1	1	1	1	5	2	30	1	0.425452
445.2855762	3.5079102	1	20	1	2	2	1	1	2	35	1	0.3751896
448.8018188	3.5079008	1	21	1	2	1	1	2	2	40	1	0.5422924
452.3182064	3.5078311	1	22	1	2	2	1	5	2	45	2	0.3004878
455.8343059	3.5079062	1	23	1	2	2	1	5	1	40	1	0.2501331
459.3505439	3.5079107	1	24	1	1	2	2	5	2	20	2	0.1833743
462.8669035	3.5078261	1	25	1	1	1	2	5	2	15	1	-0.0062836
466.3830614	3.5078965	1	26	1	2	2	1	5	2	45	2	0.3004715
469.8992911	3.5079036	1	27	1	1	2	1	3	2	40	2	0.2918162
473.4155374	3.5079139	1	28	1	2	2	1	3	2	35	2	0.291778
476.9317812	3.5080388	1	29	1	2	1	2	2	2	20	1	0.2667815
480.4481508	3.5077596	1	30	1	1	1	2	5	2	25	1	0.3419288
483.9644243	3.507983945	1	31	1	1	1	2	5	2	30	1	0.300465
487.48053	3.5078705	1	32	1	1	1	1	1	1	30	2	0.0501882
490.9968335	3.5078275	1	33	1	2	2	1	1	1	25	2	-0.1995507
494.5131407	3.507781	1	34	1	1	2	2	3	2	35	2	0.2999958
498.0292585	3.5079258	1	35	1	2	2	1	3	1	20	2	-0.0064632
501.5455153	3.5078945	1	36	1	1	1	1	1	1	15	1	0.3834449
505.06175	3.5079064	1	37	1	1	2	2	4	1	30	1	0.3668114
508.5779893	3.5079113	1	38	1	2	2	1	1	2	20	1	0.309075
512.0942385	3.5079091	1	39	1	1	2	2	1	1	35	2	0.2584733
515.6105868	3.5078719	1	40	1	2	1	1	2	2	25	1	0.3501272
519.126707	3.5079199	1	41	1	1	1	1	5	2	30	1	0.341799
522.6429553	3.5078837	1	42	1	2	2	1	4	2	35	2	0.3083544
526.1592808	3.5078611	1	43	1	1	2	1	3	1	30	2	0.2584727
529.6754563	3.507927	1	44	1	2	2	2	4	2	30	1	0.3584718
533.1917256	3.5078832	1	45	1	2	2	2	1	2	35	2	0.3500151
536.7079623	3.5079059	1	46	1	1	1	1	5	1	25	1	0.0836965
540.224198	3.5078922	1	47	1	1	2	2	4	2	30	2	0.2918383
543.7405489	3.999462	1	48	1	1	1	1	3	2	30	2	0.133492
547.7482917	3.5079242	1	49	1	2	1	2	2	1	25	2	0.0751356
551.2645412	3.5078767	1	50	1	2	2	1	1	1	25	2	0.3999876
554.7809612	3.5078252	1	51	1	1	2	1	3	1	20	2	0.1501998
558.3054244	3.5161234	1	52	1	1	2	2	1	1	20	2	0.4086532
561.8298914	3.4995682	1	53	1	1	1	1	2	1	15	1	0.2751257
565.3377924	3.5079229	1	54	1	1	1	1	4	2	20	1	0.2918215
568.8540405	3.5079043	1	55	1	2	2	2	3	1	15	1	0.133544
572.37028	3.5079488	1	56	1	2	2	1	2	2	25	2	0.2835358
575.8866634	3.5078103	1	57	1	1	1	2	1	2	20	1	-0.1330167
579.4028018	3.5079436	1	58	1	2	1	1	3	2	20	2	0.325152
582.9274157	3.5078537	1	59	1	1	2	1	2	1	15	2	0.3835353
586.4435891	3.5079225	1	60	1	1	2	2	5	1	25	2	0.2918688
589.9598467	3.5079053	1	61	1	2	2	2	4	2	20	1	0.3251986
593.4760834	3.5079148	1	62	1	2	1	2	1	2	25	1	0.2835445
596.9923126	3.5079065	1	63	1	2	1	1	3	1	10	1	0.1418817
600.5085551	3.5079356	1	64	1	2	1	2	1	2	30	2	-0.0496929
604.0248881	3.5078338	1	65	1	2	1	1	1	2	15	1	0.4584262
607.541068	3.5079103	1	66	1	2	2	1	3	2	20	1	0.2917517
611.0573772	3.5078286	1	67	1	2	2	2	4	2	25	2	0.383531
614.5735467	3.5078771	1	68	1	2	1	1	2	1	25	1	0.3334804
618.0897928	3.5078993	1	69	1	1	1	1	1	2	30	1	0.0835104
621.6060267	3.5078927	1	70	1	1	1	2	5	1	20	1	0.2752074
625.1222438	3.507894	1	71	1	1	1	2	3	1	25	1	0.3334877
628.6384787	3.5079523	1	72	1	1	1	2	2	2	30	1	0.1751091
632.1547237	3.4995896	1	73	1	2	1	1	3	2	35	2	0.2251343
635.662644	3.5078861	1	74	1	1	1	1	3	1	30	1	0.2251278
639.1955684	3.5078925	1	75	1	2	1	2	4	2	35	2	0.2085479
642.7118117	3.5078841	1	76	1	1	1	1	2	1	35	2	0.108523
646.2280367	3.5078694	1	77	1	1	2	2	4	2	30	2	0.033542
649.744255	3.5079147	1	78	1	1	2	2	4	1	25	2	0.2418418
653.2605028	3.5079132	1	79	1	2	2	1	3	2	30	1	0.3667653
656.7767377	3.5078739	1	80	1	1	2	1	3	1	35	2	0.5419635
660.2929742	3.50787	1	81	1	2	1	1	3	2	30	2	0.3669198
663.8091857	3.5079491	1	82	1	2	2	2	5	2	20	2	0.3335877
667.3254161	3.507904	1	83	1	1	2	2	5	1	15	2	0.3834832
670.8417193	3.507886	1	84	1	2	1	2	5	1	10	1	0.3251487
674.3579226	3.5079025	1	85	1	1	2	2	4	2	15	1	0.350154
677.8742107	3.5078664	1	86	1	1	2	2	3	1	20	n/a	n/a
681.3987701	3.7661509	1	87	1	1	1	1	5	2	25	1	0.2919229
685.1732448	3.5079387	1	88	1	1	2	1	3	1	30	2	0.083517
688.6894835	3.5079072	1	89	1	2	1	1	3	1	25	1	0.2835392
692.2057307	3.5078526	1	90	1	2	2	2	3	2	20	1	0.241922
695.7218957	3.5077779	1	91	1	1	1	2	5	1	25	1	0.2503397
699.2380069	3.5078086	1	92	1	1	1	2	1	1	30	1	0.3751072
702.754144	3.5078352	1	93	1	2	2	2	1	2	35	2	0.3085586
706.2703093	3.5078101	1	94	1	2	2	2	1	2	30	2	0.3167909
709.7864639	3.5078544	1	95	1	1	2	1	1	2	30	2	0.6500867
713.3026327	3.507788	1	96	1	2	2	2	5	1	25	1	0.5917554
716.8187443	3.5078376	1	97	1	2	2	1	1	1	25	2	0.2668483
720.3349163	3.5077986	1	98	1	2	2	1	1	2	20	2	0.2834783
723.8510496	3.5078786	1	99	1	1	2	2	2	2	30	2	0.3171533
727.3672742	3.5077745	1	100	1	1	1	1	4	1	15	1	0.2753279
