,onset,duration,run_number,trial_number,task,ext_mot_pos,ext_mot_ver_dir,staircase_num,fix_off_prct,trial_type,ext_mot_ori,direction_report,response_duration,trial_onset,trial_offset,button_press_onset,button_left,button_right,fix_break,motion_onset,motion_offset,fixation_onset,fixation_offset,response_onset,response_offset,trial_duration,fix_check_duration,fixation_duration,response_duration,motion_duration,reaction_time
0,3854.452487,3.757553406,1,1,1,1,2,2,5,2,-65,1.0,-0.8494365,1430921.0,1434679.0,1432837.0,1432837.0,0.0,0.0,1431688.0,1433679.0,1431688.0,1434679.0,1433686.0,1434680.0,3758.0,767.0,2991.0,994.0,1991.0,-849.0
1,3858.218376,3.5079751,1,2,1,2,1,2,2,2,-60,2.0,-1.1993176,1434686.0,1438195.0,1436004.0,0.0,1436004.0,0.0,1435203.0,1437195.0,1435204.0,1438195.0,1437202.0,1438195.0,3509.0,518.0,2991.0,993.0,1992.0,-1198.0
2,3861.73453,3.4996925,1,3,1,2,2,1,1,1,-15,2.0,-1.0075661,1438202.0,1441703.0,1439703.0,0.0,1439703.0,0.0,1438712.0,1440703.0,1438712.0,1441704.0,1440710.0,1441704.0,3501.0,510.0,2992.0,994.0,1991.0,-1007.0
3,3865.242486,3.4993721,1,4,1,2,2,2,1,1,-65,2.0,-1.4069001,1441710.0,1445210.0,1442813.0,0.0,1442813.0,0.0,1442219.0,1444211.0,1442219.0,1445211.0,1444218.0,1445211.0,3500.0,509.0,2992.0,993.0,1992.0,-1405.0
4,3868.750191,3.5244911,1,5,1,1,2,2,5,2,-70,1.0,-1.2655109,1445218.0,1448744.0,1446486.0,1446486.0,0.0,0.0,1445753.0,1447744.0,1445754.0,1448745.0,1447751.0,1448745.0,3526.0,536.0,2991.0,994.0,1991.0,-1265.0
5,3872.291346,3.5078202,1,6,1,2,2,1,4,2,-20,2.0,-0.8651096,1448760.0,1452268.0,1450411.0,0.0,1450411.0,0.0,1449277.0,1451268.0,1449277.0,1452268.0,1451275.0,1452269.0,3508.0,517.0,2991.0,994.0,1991.0,-864.0
6,3875.807504,3.5078267,1,7,1,2,2,1,3,1,-25,2.0,-0.9405486,1452274.0,1455783.0,1453852.0,0.0,1453852.0,0.0,1452793.0,1454784.0,1452793.0,1455784.0,1454791.0,1455784.0,3509.0,519.0,2991.0,993.0,1991.0,-939.0
7,3879.323657,3.5078345,1,8,1,1,2,1,3,2,-30,1.0,-0.5661666,1455791.0,1459300.0,1457742.0,1457742.0,0.0,0.0,1456309.0,1458300.0,1456309.0,1459300.0,1458307.0,1459300.0,3509.0,518.0,2991.0,993.0,1991.0,-565.0
8,3882.83983,3.5078096,1,9,1,1,1,1,3,1,-25,1.0,-0.6746031,1459307.0,1462816.0,1461150.0,1461150.0,0.0,0.0,1459824.0,1461816.0,1459825.0,1462816.0,1461823.0,1462817.0,3509.0,518.0,2991.0,994.0,1992.0,-673.0
9,3886.356119,3.5076779,1,10,1,2,1,1,5,2,-20,1.0,-0.3905566,1462823.0,1466332.0,1464951.0,1464951.0,0.0,0.0,1463341.0,1465333.0,1463341.0,1466333.0,1465339.0,1466333.0,3509.0,518.0,2992.0,994.0,1992.0,-388.0
10,3889.872206,3.5079225,1,11,1,1,2,2,4,2,-65,1.0,-0.024777,1466339.0,1469849.0,1468832.0,1468832.0,0.0,0.0,1466857.0,1468849.0,1466857.0,1469849.0,1468855.0,1469849.0,3510.0,518.0,2992.0,994.0,1992.0,-23.0
11,3893.388283,3.5078534,1,12,1,2,1,2,2,2,-60,2.0,-0.9162934,1469855.0,1473365.0,1471457.0,0.0,1471457.0,0.0,1470373.0,1472365.0,1470373.0,1473365.0,1472371.0,1473365.0,3510.0,518.0,2992.0,994.0,1992.0,-914.0
12,3896.904571,3.5076966,1,13,1,2,2,2,1,1,-65,1.0,-0.4825324,1473372.0,1476880.0,1475407.0,1475407.0,0.0,0.0,1473890.0,1475881.0,1473890.0,1476881.0,1475888.0,1476881.0,3508.0,518.0,2991.0,993.0,1991.0,-481.0
13,3900.420656,3.5077664,1,14,1,2,1,2,3,1,-60,2.0,-0.4909046,1476888.0,1480397.0,1478914.0,0.0,1478914.0,0.0,1477406.0,1479397.0,1477406.0,1480397.0,1479404.0,1480397.0,3509.0,518.0,2991.0,993.0,1991.0,-490.0
14,3903.936758,3.5078081,1,15,1,1,2,1,4,2,-15,1.0,-0.6913981,1480404.0,1483913.0,1482230.0,1482230.0,0.0,0.0,1480922.0,1482913.0,1480922.0,1483913.0,1482920.0,1483913.0,3509.0,518.0,2991.0,993.0,1991.0,-690.0
15,3907.452899,3.5078084,1,16,1,1,1,2,4,2,-65,1.0,-0.7329881,1483920.0,1487429.0,1485705.0,1485705.0,0.0,0.0,1484438.0,1486430.0,1484438.0,1487429.0,1486436.0,1487429.0,3509.0,518.0,2991.0,993.0,1992.0,-731.0
16,3910.969058,3.5078066,1,17,1,2,2,1,3,1,-10,2.0,-1.2745324,1487436.0,1490945.0,1488680.0,0.0,1488680.0,0.0,1487954.0,1489945.0,1487954.0,1490946.0,1489952.0,1490946.0,3509.0,518.0,2992.0,994.0,1991.0,-1272.0
17,3914.485188,3.5078793,1,18,1,2,1,1,1,2,-15,2.0,-1.1162688,1490952.0,1494462.0,1492354.0,0.0,1492354.0,0.0,1491470.0,1493461.0,1491470.0,1494462.0,1493468.0,1494462.0,3510.0,518.0,2992.0,994.0,1991.0,-1114.0
18,3918.001399,3.5078167,1,19,1,2,2,2,1,2,-60,1.0,-1.0997186,1494468.0,1497977.0,1495886.0,1495886.0,0.0,0.0,1494987.0,1496978.0,1494987.0,1497977.0,1496985.0,1497978.0,3509.0,519.0,2990.0,993.0,1991.0,-1099.0
19,3921.51767,3.5076972,1,20,1,2,1,1,2,1,-20,2.0,-0.3080622,1497985.0,1501493.0,1500194.0,0.0,1500194.0,0.0,1498503.0,1500494.0,1498503.0,1501494.0,1500501.0,1501494.0,3508.0,518.0,2991.0,993.0,1991.0,-307.0
20,3925.033823,3.5077041,1,21,1,2,1,2,4,1,-55,1.0,-0.6747227,1501501.0,1505010.0,1503343.0,1503343.0,0.0,0.0,1502018.0,1504010.0,1502018.0,1505010.0,1504017.0,1505010.0,3509.0,517.0,2992.0,993.0,1992.0,-674.0
21,3928.549872,3.507809,1,22,1,2,2,2,2,2,-50,1.0,-0.4414098,1505017.0,1508526.0,1507093.0,1507093.0,0.0,0.0,1505534.0,1507526.0,1505534.0,1508526.0,1507533.0,1508526.0,3509.0,517.0,2992.0,993.0,1992.0,-440.0
22,3932.066137,3.9243122,1,23,1,1,1,1,2,2,-25,1.0,-0.9747394,1508533.0,1512459.0,1510493.0,1510493.0,0.0,0.0,1509467.0,1511459.0,1509468.0,1512459.0,1511466.0,1512460.0,3926.0,935.0,2991.0,994.0,1992.0,-973.0
23,3935.998905,3.5076712,1,24,1,1,2,2,3,2,-45,2.0,-0.7496643,1512466.0,1515974.0,1514233.0,0.0,1514233.0,0.0,1512984.0,1514975.0,1512984.0,1515974.0,1514982.0,1515975.0,3508.0,518.0,2990.0,993.0,1991.0,-749.0
24,3939.515013,3.5077673,1,25,1,2,1,1,2,2,-20,2.0,0.2919792,1515982.0,1519491.0,1518792.0,0.0,1518792.0,0.0,1516500.0,1518491.0,1516500.0,1519491.0,1518498.0,1519491.0,3509.0,518.0,2991.0,993.0,1991.0,294.0
25,3943.031113,3.7911195,1,26,1,2,2,1,3,2,-25,2.0,-0.166361,1519498.0,1523291.0,1522132.0,0.0,1522132.0,0.0,1520299.0,1522290.0,1520299.0,1523291.0,1522297.0,1523291.0,3793.0,801.0,2992.0,994.0,1991.0,-165.0
26,3946.830546,3.5078002,1,27,1,2,2,1,4,2,-30,2.0,-0.4580442,1523297.0,1526806.0,1525357.0,0.0,1525357.0,0.0,1523815.0,1525807.0,1523815.0,1526806.0,1525813.0,1526806.0,3509.0,518.0,2991.0,993.0,1992.0,-456.0
27,3950.346686,3.5078455,1,28,1,1,2,2,4,2,-50,1.0,-0.4163818,1526813.0,1530322.0,1528915.0,1528915.0,0.0,0.0,1527332.0,1529323.0,1527332.0,1530322.0,1529330.0,1530323.0,3509.0,519.0,2990.0,993.0,1991.0,-415.0
28,3953.862863,3.507826,1,29,1,1,2,1,5,1,-35,2.0,-0.7826675,1530329.0,1533839.0,1532065.0,0.0,1532065.0,0.0,1530847.0,1532839.0,1530847.0,1533839.0,1532846.0,1533839.0,3510.0,518.0,2992.0,993.0,1992.0,-781.0
29,3957.379019,3.5078141,1,30,1,2,2,2,4,2,-45,1.0,-0.6580231,1533846.0,1537355.0,1535706.0,1535706.0,0.0,0.0,1534363.0,1536356.0,1534363.0,1537355.0,1536362.0,1537355.0,3509.0,517.0,2992.0,993.0,1993.0,-656.0
30,3960.895168,3.5078218,1,31,1,1,1,1,2,1,-40,2.0,-0.8913455,1537362.0,1540871.0,1538988.0,0.0,1538988.0,0.0,1537880.0,1539871.0,1537880.0,1540871.0,1539878.0,1540871.0,3509.0,518.0,2991.0,993.0,1991.0,-890.0
31,3964.411342,3.5078262,1,32,1,1,2,2,3,2,-40,1.0,-0.7913203,1540878.0,1544388.0,1542605.0,1542605.0,0.0,0.0,1541396.0,1543387.0,1541396.0,1544388.0,1543394.0,1544388.0,3510.0,518.0,2992.0,994.0,1991.0,-789.0
32,3967.927497,3.507827,1,33,1,2,2,2,5,1,-35,2.0,-0.8081114,1544394.0,1547903.0,1546104.0,0.0,1546104.0,0.0,1544912.0,1546903.0,1544912.0,1547903.0,1546911.0,1547903.0,3509.0,518.0,2991.0,992.0,1991.0,-807.0
33,3971.443658,3.5078274,1,34,1,1,1,1,1,1,-45,1.0,-0.1080925,1547910.0,1551419.0,1550320.0,1550320.0,0.0,0.0,1548429.0,1550420.0,1548429.0,1551419.0,1550426.0,1551420.0,3509.0,519.0,2990.0,994.0,1991.0,-106.0
34,3974.959939,3.5077169,1,35,1,2,1,1,1,1,-40,1.0,-0.1664014,1551427.0,1554936.0,1553778.0,1553778.0,0.0,0.0,1551944.0,1553936.0,1551944.0,1554936.0,1553943.0,1554936.0,3509.0,517.0,2992.0,993.0,1992.0,-165.0
35,3978.475987,3.5078137,1,36,1,2,1,1,5,1,-35,1.0,-0.5079466,1554942.0,1558452.0,1556953.0,1556953.0,0.0,0.0,1555460.0,1557452.0,1555460.0,1558452.0,1557459.0,1558452.0,3510.0,518.0,2992.0,993.0,1992.0,-506.0
36,3981.992132,3.5078291,1,37,1,1,2,2,1,2,-40,2.0,-0.549628,1558459.0,1561968.0,1560427.0,0.0,1560427.0,0.0,1558977.0,1560968.0,1558977.0,1561968.0,1560975.0,1561968.0,3509.0,518.0,2991.0,993.0,1991.0,-548.0
37,3985.508292,3.5078517,1,38,1,1,1,1,2,1,-30,1.0,-0.2496286,1561975.0,1565484.0,1564243.0,1564243.0,0.0,0.0,1562493.0,1564484.0,1562493.0,1565485.0,1564491.0,1565485.0,3509.0,518.0,2992.0,994.0,1991.0,-248.0
38,3989.024457,3.5078558,1,39,1,1,2,1,2,2,-25,2.0,-0.9746306,1565491.0,1569001.0,1567034.0,0.0,1567034.0,0.0,1566009.0,1568000.0,1566009.0,1569001.0,1568007.0,1569001.0,3510.0,518.0,2992.0,994.0,1991.0,-973.0
39,3992.540598,3.5078108,1,40,1,2,2,2,4,1,-45,1.0,-1.1163663,1569007.0,1572516.0,1570409.0,1570409.0,0.0,0.0,1569525.0,1571517.0,1569525.0,1572516.0,1571524.0,1572516.0,3509.0,518.0,2991.0,992.0,1992.0,-1115.0
40,3996.056773,3.5078304,1,41,1,2,2,2,5,2,-40,1.0,-0.8245749,1572523.0,1576032.0,1574216.0,1574216.0,0.0,0.0,1573041.0,1575033.0,1573041.0,1576033.0,1575039.0,1576033.0,3509.0,518.0,2992.0,994.0,1992.0,-823.0
41,3999.57293,3.5078415,1,42,1,2,2,2,1,1,-35,1.0,-0.9246294,1576039.0,1579549.0,1577633.0,1577633.0,0.0,0.0,1576557.0,1578549.0,1576557.0,1579549.0,1578556.0,1579549.0,3510.0,518.0,2992.0,993.0,1992.0,-923.0
42,4003.089104,3.5077988,1,43,1,2,1,1,5,2,-30,2.0,-0.633193,1579555.0,1583065.0,1581441.0,0.0,1581441.0,0.0,1580073.0,1582066.0,1580073.0,1583065.0,1582072.0,1583065.0,3510.0,518.0,2992.0,993.0,1993.0,-631.0
43,4006.605235,3.5078258,1,44,1,2,2,1,2,2,-35,1.0,-0.2914128,1583071.0,1586581.0,1585298.0,1585298.0,0.0,0.0,1583590.0,1585581.0,1583590.0,1586582.0,1585588.0,1586582.0,3510.0,519.0,2992.0,994.0,1991.0,-290.0
44,4010.121522,3.9992906,1,45,1,1,2,2,2,2,-30,2.0,-0.4746836,1586588.0,1590588.0,1589122.0,0.0,1589122.0,0.0,1587598.0,1589589.0,1587598.0,1590588.0,1589596.0,1590589.0,4000.0,1010.0,2990.0,993.0,1991.0,-474.0
45,4014.129146,3.5078461,1,46,1,1,1,1,2,2,-30,1.0,-0.8662831,1590595.0,1594105.0,1592246.0,1592246.0,0.0,0.0,1591114.0,1593105.0,1591114.0,1594105.0,1593112.0,1594105.0,3510.0,519.0,2991.0,993.0,1991.0,-866.0
46,4017.645324,3.60781,1,47,1,1,1,2,1,2,-35,n/a,n/a,1594112.0,1597721.0,0.0,0.0,0.0,0.0,1594729.0,1596721.0,1594729.0,1597721.0,1596728.0,1597721.0,3609.0,617.0,2992.0,993.0,1992.0,-1596728.0
47,4021.261466,3.5411879,1,48,1,2,1,1,1,1,-25,2.0,-0.2491494,1597728.0,1601270.0,1600030.0,0.0,1600030.0,0.0,1598279.0,1600271.0,1598280.0,1601270.0,1600277.0,1601270.0,3542.0,552.0,2990.0,993.0,1992.0,-247.0
48,4024.810959,3.5078278,1,49,1,1,1,1,2,1,-30,2.0,-0.0163701,1601277.0,1604786.0,1603779.0,0.0,1603779.0,0.0,1601795.0,1603785.0,1601795.0,1604786.0,1603795.0,1604787.0,3509.0,518.0,2991.0,992.0,1990.0,-16.0
49,4028.327115,3.5078439,1,50,1,1,2,1,2,2,-35,1.0,-0.2911181,1604793.0,1608303.0,1607020.0,1607020.0,0.0,0.0,1605311.0,1607303.0,1605311.0,1608303.0,1607310.0,1608303.0,3510.0,518.0,2992.0,993.0,1992.0,-290.0
50,4031.843291,3.5078115,1,51,1,2,2,2,2,1,-35,1.0,-0.6830245,1608309.0,1611819.0,1610144.0,1610144.0,0.0,0.0,1608828.0,1610819.0,1608828.0,1611819.0,1610826.0,1611819.0,3510.0,519.0,2991.0,993.0,1991.0,-682.0
51,4035.359439,3.5078238,1,52,1,2,1,2,4,2,-30,1.0,-0.8080008,1611826.0,1615335.0,1613535.0,1613535.0,0.0,0.0,1612344.0,1614335.0,1612344.0,1615335.0,1614342.0,1615336.0,3509.0,518.0,2991.0,994.0,1991.0,-807.0
52,4038.875596,3.5078404,1,53,1,1,2,1,3,1,-30,1.0,-0.6581667,1615342.0,1618851.0,1617201.0,1617201.0,0.0,0.0,1615860.0,1617851.0,1615860.0,1618851.0,1617858.0,1618851.0,3509.0,518.0,2991.0,993.0,1991.0,-657.0
53,4042.391917,3.5076832,1,54,1,2,2,1,3,2,-25,2.0,-0.9163136,1618858.0,1622367.0,1620460.0,0.0,1620460.0,0.0,1619376.0,1621367.0,1619377.0,1622367.0,1621374.0,1622367.0,3509.0,519.0,2990.0,993.0,1991.0,-914.0
54,4045.907916,3.5078474,1,55,1,1,2,2,4,2,-25,1.0,-0.5913711,1622374.0,1625883.0,1624301.0,1624301.0,0.0,0.0,1622893.0,1624884.0,1622893.0,1625883.0,1624890.0,1625883.0,3509.0,519.0,2990.0,993.0,1991.0,-589.0
55,4049.424079,3.5078369,1,56,1,1,2,2,2,1,-20,1.0,-0.4998533,1625890.0,1629400.0,1627908.0,1627908.0,0.0,0.0,1626408.0,1628400.0,1626408.0,1629400.0,1628407.0,1629400.0,3510.0,518.0,2992.0,993.0,1992.0,-499.0
56,4052.94025,3.5078128,1,57,1,2,1,2,4,2,-15,2.0,-1.0407145,1629406.0,1632916.0,1630884.0,0.0,1630884.0,0.0,1629924.0,1631916.0,1629925.0,1632916.0,1631923.0,1632916.0,3510.0,519.0,2991.0,993.0,1992.0,-1039.0
57,4056.464761,3.5077819,1,58,1,2,1,2,3,1,-20,1.0,-1.1412895,1632931.0,1636440.0,1634307.0,1634307.0,0.0,0.0,1633450.0,1635441.0,1633450.0,1636440.0,1635447.0,1636440.0,3509.0,519.0,2990.0,993.0,1991.0,-1140.0
58,4059.980867,3.5078378,1,59,1,2,1,1,4,2,-30,1.0,-0.5330639,1636447.0,1639957.0,1638432.0,1638432.0,0.0,0.0,1636965.0,1638957.0,1636965.0,1639957.0,1638963.0,1639957.0,3510.0,518.0,2992.0,994.0,1992.0,-531.0
59,4063.497038,3.5078421,1,60,1,2,2,1,3,1,-25,1.0,-1.2912095,1639963.0,1643473.0,1641190.0,1641190.0,0.0,0.0,1640481.0,1642472.0,1640481.0,1643473.0,1642479.0,1643473.0,3510.0,518.0,2992.0,994.0,1991.0,-1289.0
60,4067.013214,3.5078263,1,61,1,1,2,1,1,2,-20,n/a,n/a,1643479.0,1646989.0,0.0,0.0,0.0,0.0,1643998.0,1645989.0,1643998.0,1646989.0,1645996.0,1646989.0,3510.0,519.0,2991.0,993.0,1991.0,-1645996.0
61,4070.529374,3.507824,1,62,1,1,1,2,2,2,-15,1.0,-0.4498442,1646995.0,1650504.0,1649063.0,1649063.0,0.0,0.0,1647514.0,1649505.0,1647514.0,1650505.0,1649512.0,1650505.0,3509.0,519.0,2991.0,993.0,1991.0,-449.0
62,4074.045656,3.5077188,1,63,1,1,1,2,2,2,-10,1.0,-0.6330329,1650512.0,1654021.0,1652397.0,1652397.0,0.0,0.0,1651030.0,1653021.0,1651030.0,1654021.0,1653028.0,1654021.0,3509.0,518.0,2991.0,993.0,1991.0,-631.0
63,4077.561827,3.5076953,1,64,1,2,1,1,2,2,-20,1.0,-0.7496696,1654028.0,1657537.0,1655796.0,1655796.0,0.0,0.0,1654545.0,1656537.0,1654545.0,1657537.0,1656544.0,1657537.0,3509.0,517.0,2992.0,993.0,1992.0,-748.0
64,4081.077854,3.8078024,1,65,1,1,1,1,3,1,-15,1.0,-0.0997609,1657544.0,1661353.0,1660262.0,1660262.0,0.0,0.0,1658362.0,1660354.0,1658362.0,1661353.0,1660360.0,1661353.0,3809.0,818.0,2991.0,993.0,1992.0,-98.0
65,4084.893979,3.5078201,1,66,1,2,1,1,1,2,-10,1.0,0.8334531,1661360.0,1664869.0,1664712.0,1664712.0,0.0,0.0,1661878.0,1663870.0,1661878.0,1664869.0,1663876.0,1664870.0,3509.0,518.0,2991.0,994.0,1992.0,836.0
66,4088.410133,3.5078495,1,67,1,1,1,2,4,1,-5,2.0,0.0002709999999,1664876.0,1668386.0,1667393.0,0.0,1667393.0,0.0,1665394.0,1667385.0,1665394.0,1668386.0,1667392.0,1668386.0,3510.0,518.0,2992.0,994.0,1991.0,1.0
67,4091.926464,3.5076616,1,68,1,1,1,2,4,2,-10,2.0,-0.72467,1668392.0,1671902.0,1670185.0,0.0,1670185.0,0.0,1668911.0,1670902.0,1668911.0,1671902.0,1670908.0,1671902.0,3510.0,519.0,2991.0,994.0,1991.0,-723.0
68,4095.442458,3.5078249,1,69,1,2,1,2,4,1,-15,1.0,-0.5164123,1671908.0,1675418.0,1673909.0,1673909.0,0.0,0.0,1672426.0,1674418.0,1672426.0,1675418.0,1674425.0,1675418.0,3510.0,518.0,2992.0,993.0,1992.0,-516.0
69,4098.958604,3.5078379,1,70,1,1,1,2,4,2,-10,2.0,-0.8579944,1675424.0,1678934.0,1677084.0,0.0,1677084.0,0.0,1675942.0,1677935.0,1675942.0,1678934.0,1677941.0,1678934.0,3510.0,518.0,2992.0,993.0,1993.0,-857.0
70,4102.474761,3.5078459,1,71,1,2,2,2,2,1,-15,1.0,-0.4497481,1678941.0,1682450.0,1681009.0,1681009.0,0.0,0.0,1679459.0,1681450.0,1679459.0,1682450.0,1681457.0,1682451.0,3509.0,518.0,2991.0,994.0,1991.0,-448.0
71,4105.990919,3.5078182,1,72,1,1,2,1,2,1,-5,2.0,-1.0329518,1682457.0,1685967.0,1683942.0,0.0,1683942.0,0.0,1682975.0,1684966.0,1682975.0,1685967.0,1684973.0,1685967.0,3510.0,518.0,2992.0,994.0,1991.0,-1031.0
72,4109.507082,3.5078219,1,73,1,2,2,1,2,1,-10,2.0,-1.1162198,1685973.0,1689482.0,1687375.0,0.0,1687375.0,0.0,1686491.0,1688482.0,1686491.0,1689482.0,1688489.0,1689482.0,3509.0,518.0,2991.0,993.0,1991.0,-1114.0
73,4113.023236,3.5079277,1,74,1,1,1,2,3,2,-10,2.0,-0.4079858,1689489.0,1692999.0,1691599.0,0.0,1691599.0,0.0,1690008.0,1691998.0,1690008.0,1692999.0,1692005.0,1692999.0,3510.0,519.0,2991.0,994.0,1990.0,-406.0
74,4116.539454,3.5077767,1,75,1,1,1,2,2,2,-15,2.0,-1.0829012,1693005.0,1696514.0,1694440.0,0.0,1694440.0,0.0,1693524.0,1695515.0,1693524.0,1696514.0,1695522.0,1696515.0,3509.0,519.0,2990.0,993.0,1991.0,-1082.0
75,4120.055563,3.5078442,1,76,1,2,1,1,2,2,-15,2.0,-1.0995585,1696521.0,1700031.0,1697940.0,0.0,1697940.0,0.0,1697039.0,1699031.0,1697039.0,1700031.0,1699038.0,1700031.0,3510.0,518.0,2992.0,993.0,1992.0,-1098.0
76,4123.571742,3.5078252,1,77,1,1,1,1,4,2,-20,2.0,-0.3247045,1700037.0,1703547.0,1702230.0,0.0,1702230.0,0.0,1700555.0,1702547.0,1700555.0,1703547.0,1702554.0,1703547.0,3510.0,518.0,2992.0,993.0,1992.0,-324.0
77,4127.088001,3.5077286,1,78,1,2,1,1,2,1,-25,2.0,-0.3748503,1703554.0,1707063.0,1705697.0,0.0,1705697.0,0.0,1704072.0,1706064.0,1704072.0,1707063.0,1706070.0,1707064.0,3509.0,518.0,2991.0,994.0,1992.0,-373.0
78,4130.604289,3.507606,1,79,1,1,2,2,4,2,-20,1.0,-0.9914272,1707070.0,1710579.0,1708596.0,1708596.0,0.0,0.0,1707588.0,1709579.0,1707588.0,1710580.0,1709586.0,1710580.0,3509.0,518.0,2992.0,994.0,1991.0,-990.0
79,4134.120231,3.5078395,1,80,1,2,1,1,5,1,-30,2.0,0.0501189,1710586.0,1714096.0,1713154.0,0.0,1713154.0,0.0,1711104.0,1713095.0,1711104.0,1714096.0,1713102.0,1714096.0,3510.0,518.0,2992.0,994.0,1991.0,52.0
80,4137.636401,3.507832,1,81,1,1,2,1,1,1,-35,1.0,-0.4330519,1714102.0,1717611.0,1716187.0,1716187.0,0.0,0.0,1714621.0,1716612.0,1714621.0,1717611.0,1716618.0,1717611.0,3509.0,519.0,2990.0,993.0,1991.0,-431.0
81,4141.152551,3.5078369,1,82,1,1,1,2,4,1,-15,1.0,-0.6496812,1717618.0,1721127.0,1719486.0,1719486.0,0.0,0.0,1718137.0,1720128.0,1718137.0,1721127.0,1720134.0,1721128.0,3509.0,519.0,2990.0,994.0,1991.0,-648.0
82,4144.668796,3.5077616,1,83,1,1,1,2,4,1,-10,2.0,-0.6657311,1721135.0,1724644.0,1722987.0,0.0,1722987.0,0.0,1721652.0,1723644.0,1721652.0,1724644.0,1723651.0,1724644.0,3509.0,517.0,2992.0,993.0,1992.0,-664.0
83,4148.184889,3.5078124,1,84,1,2,2,2,4,1,-15,1.0,-0.5409093,1724651.0,1728160.0,1726628.0,1726628.0,0.0,0.0,1725168.0,1727160.0,1725168.0,1728160.0,1727167.0,1728160.0,3509.0,517.0,2992.0,993.0,1992.0,-539.0
84,4151.701174,3.5076773,1,85,1,1,1,2,5,1,-10,2.0,-0.6248722,1728167.0,1731676.0,1730060.0,0.0,1730060.0,0.0,1728685.0,1730676.0,1728685.0,1731676.0,1730683.0,1731676.0,3509.0,518.0,2991.0,993.0,1991.0,-623.0
85,4155.217182,3.5078466,1,86,1,1,2,1,2,2,-30,2.0,-0.6165823,1731683.0,1735193.0,1733584.0,0.0,1733584.0,0.0,1732201.0,1734192.0,1732201.0,1735193.0,1734199.0,1735193.0,3510.0,518.0,2992.0,994.0,1991.0,-615.0
86,4158.733337,3.974451,1,87,1,1,2,2,5,2,-15,2.0,-1.257902,1735199.0,1739175.0,1736926.0,0.0,1736926.0,0.0,1736184.0,1738175.0,1736184.0,1739175.0,1738182.0,1739175.0,3976.0,985.0,2991.0,993.0,1991.0,-1256.0
87,4162.71628,3.9992771,1,88,1,2,2,1,3,2,-35,1.0,-0.6915319,1739182.0,1743183.0,1741500.0,1741500.0,0.0,0.0,1740191.0,1742184.0,1740191.0,1743183.0,1742190.0,1743183.0,4001.0,1009.0,2992.0,993.0,1993.0,-690.0
88,4166.723891,3.5078296,1,89,1,1,1,2,1,1,-20,2.0,-0.374625,1743189.0,1746699.0,1745333.0,0.0,1745333.0,0.0,1743707.0,1745699.0,1743707.0,1746699.0,1745706.0,1746699.0,3510.0,518.0,2992.0,993.0,1992.0,-373.0
89,4170.240038,3.8161187,1,90,1,1,1,1,5,2,-30,1.0,-0.408238,1746705.0,1750523.0,1749124.0,1749124.0,0.0,0.0,1747532.0,1749524.0,1747532.0,1750523.0,1749531.0,1750524.0,3818.0,827.0,2991.0,993.0,1992.0,-407.0
90,4174.064627,3.6660034,1,91,1,1,1,2,4,2,-25,1.0,-0.7663224,1750530.0,1754197.0,1752440.0,1752440.0,0.0,0.0,1751207.0,1753198.0,1751207.0,1754197.0,1753205.0,1754198.0,3667.0,677.0,2990.0,993.0,1991.0,-765.0
91,4249.378661,3.6661829,1,92,1,2,1,2,1,2,-20,2.0,0.0834959,1825844.0,1829512.0,1828603.0,0.0,1828603.0,0.0,1826520.0,1828511.0,1826520.0,1829512.0,1828518.0,1829512.0,3668.0,676.0,2992.0,994.0,1991.0,85.0
92,4253.05315,3.5077634,1,93,1,1,2,2,4,2,-25,2.0,-0.674699,1829518.0,1833027.0,1831361.0,0.0,1831361.0,0.0,1830037.0,1832028.0,1830037.0,1833027.0,1832035.0,1833027.0,3509.0,519.0,2990.0,992.0,1991.0,-674.0
93,4256.569255,3.5078654,1,94,1,1,2,1,4,1,-25,1.0,-0.6829763,1833034.0,1836544.0,1834869.0,1834869.0,0.0,0.0,1833552.0,1835544.0,1833552.0,1836544.0,1835551.0,1836544.0,3510.0,518.0,2992.0,993.0,1992.0,-682.0
94,4260.085406,3.5078662,1,95,1,1,1,2,5,2,-30,1.0,-0.3746463,1836550.0,1840060.0,1838693.0,1838693.0,0.0,0.0,1837068.0,1839060.0,1837068.0,1840060.0,1839067.0,1840060.0,3510.0,518.0,2992.0,993.0,1992.0,-374.0
95,4263.601593,3.5078334,1,96,1,1,2,2,4,1,-25,2.0,-0.8746242,1840067.0,1843576.0,1841710.0,0.0,1841710.0,0.0,1840585.0,1842577.0,1840585.0,1843576.0,1842583.0,1843576.0,3509.0,518.0,2991.0,993.0,1992.0,-873.0
96,4267.117768,3.5078522,1,97,1,1,1,1,1,1,-20,1.0,-0.9329616,1843583.0,1847093.0,1845167.0,1845167.0,0.0,0.0,1844101.0,1846092.0,1844101.0,1847093.0,1846099.0,1847093.0,3510.0,518.0,2992.0,994.0,1991.0,-932.0
97,4270.634065,3.5077411,1,98,1,1,1,2,3,1,-30,1.0,-0.9829868,1847099.0,1850609.0,1848634.0,1848634.0,0.0,0.0,1847617.0,1849608.0,1847617.0,1850609.0,1849615.0,1850609.0,3510.0,518.0,2992.0,994.0,1991.0,-981.0
98,4274.150236,3.507716,1,99,1,1,1,1,1,2,-15,2.0,-0.5081665,1850615.0,1854124.0,1852625.0,0.0,1852625.0,0.0,1851133.0,1853125.0,1851133.0,1854124.0,1853132.0,1854124.0,3509.0,518.0,2991.0,992.0,1992.0,-507.0
99,4277.666267,3.9994331,1,100,1,2,1,2,4,1,-25,2.0,-0.8496632,1854131.0,1858132.0,1856291.0,0.0,1856291.0,0.0,1855141.0,1857133.0,1855141.0,1858132.0,1857139.0,1858132.0,4001.0,1010.0,2991.0,993.0,1992.0,-848.0
100,4505.266887,3.8661036,2,1,1,1,1,2,1,2,-65,2.0,0.3753375,2081731.0,2085598.0,2084982.0,0.0,2084982.0,0.0,2082608.0,2084599.0,2082608.0,2085599.0,2084605.0,2085599.0,3867.0,877.0,2991.0,994.0,1991.0,377.0
101,4509.141321,3.9410868,2,2,1,1,2,2,3,1,-70,1.0,-0.6744366,2085605.0,2089548.0,2087882.0,2087882.0,0.0,0.0,2086557.0,2088548.0,2086557.0,2089548.0,2088555.0,2089549.0,3943.0,952.0,2991.0,994.0,1991.0,-673.0
102,4513.090792,3.5077733,2,3,1,1,1,2,1,2,-65,1.0,-0.724511,2089555.0,2093064.0,2091347.0,2091347.0,0.0,0.0,2090073.0,2092064.0,2090073.0,2093064.0,2092071.0,2093064.0,3509.0,518.0,2991.0,993.0,1991.0,-724.0
103,4516.606889,3.5911597,2,4,1,1,1,2,3,1,-60,1.0,-0.7577916,2093071.0,2096664.0,2094914.0,2094914.0,0.0,0.0,2093672.0,2095663.0,2093672.0,2096664.0,2095670.0,2096664.0,3593.0,601.0,2992.0,994.0,1991.0,-756.0
104,4520.206369,3.507833,2,5,1,2,2,1,3,2,-15,2.0,-1.0805704,2096670.0,2100180.0,2098108.0,0.0,2098108.0,0.0,2097189.0,2099180.0,2097189.0,2100181.0,2099187.0,2100182.0,3510.0,519.0,2992.0,995.0,1991.0,-1079.0
105,4523.72254,3.507847,2,6,1,1,2,1,1,1,-20,2.0,-0.9744774,2100186.0,2103695.0,2101729.0,0.0,2101729.0,0.0,2100705.0,2102696.0,2100705.0,2103696.0,2102703.0,2103696.0,3509.0,519.0,2991.0,993.0,1991.0,-974.0
106,4527.238706,3.5078397,2,7,1,1,2,2,4,1,-55,1.0,-1.0576786,2103702.0,2107212.0,2105163.0,2105163.0,0.0,0.0,2104220.0,2106212.0,2104220.0,2107212.0,2106219.0,2107212.0,3510.0,518.0,2992.0,993.0,1992.0,-1056.0
107,4530.754879,3.5078163,2,8,1,1,1,2,4,1,-50,2.0,-0.9578762,2107219.0,2110728.0,2108779.0,0.0,2108779.0,0.0,2107736.0,2109728.0,2107736.0,2110728.0,2109735.0,2110728.0,3509.0,517.0,2992.0,993.0,1992.0,-956.0
108,4534.27104,3.5078303,2,9,1,1,1,1,3,1,-25,2.0,-1.0822501,2110735.0,2114244.0,2112170.0,0.0,2112170.0,0.0,2111253.0,2113244.0,2111253.0,2114244.0,2113251.0,2114244.0,3509.0,518.0,2991.0,993.0,1991.0,-1081.0
109,4537.787208,3.5078243,2,10,1,1,2,1,2,1,-30,2.0,-0.799565,2114251.0,2117761.0,2115969.0,0.0,2115969.0,0.0,2114769.0,2116760.0,2114769.0,2117761.0,2116767.0,2117761.0,3510.0,518.0,2992.0,994.0,1991.0,-798.0
110,4541.303352,3.5078287,2,11,1,1,1,1,4,1,-35,1.0,-0.707258,2117767.0,2121276.0,2119578.0,2119578.0,0.0,0.0,2118285.0,2120276.0,2118285.0,2121276.0,2120283.0,2121276.0,3509.0,518.0,2991.0,993.0,1991.0,-705.0
111,4544.819656,3.5076898,2,12,1,2,2,2,1,2,-55,1.0,-0.891293,2121283.0,2124792.0,2122910.0,2122910.0,0.0,0.0,2121802.0,2123793.0,2121802.0,2124792.0,2123799.0,2124792.0,3509.0,519.0,2990.0,993.0,1991.0,-889.0
112,4548.335673,3.5078276,2,13,1,1,1,2,4,1,-50,1.0,-0.4747143,2124799.0,2128309.0,2126842.0,2126842.0,0.0,0.0,2125317.0,2127309.0,2125317.0,2128309.0,2127315.0,2128309.0,3510.0,518.0,2992.0,994.0,1992.0,-473.0
113,4551.851837,3.507828,2,14,1,2,2,1,4,2,-30,1.0,-0.8330373,2128315.0,2131825.0,2130001.0,2130001.0,0.0,0.0,2128833.0,2130825.0,2128833.0,2131825.0,2130832.0,2131825.0,3510.0,518.0,2992.0,993.0,1992.0,-831.0
114,4555.367999,3.5078287,2,15,1,2,1,1,1,2,-25,2.0,-1.041287,2131831.0,2135341.0,2133308.0,0.0,2133308.0,0.0,2132350.0,2134341.0,2132350.0,2135341.0,2134348.0,2135341.0,3510.0,519.0,2991.0,993.0,1991.0,-1040.0
115,4558.884163,3.5078416,2,16,1,2,2,2,4,2,-45,1.0,-0.8079207,2135348.0,2138857.0,2137057.0,2137057.0,0.0,0.0,2135866.0,2137857.0,2135866.0,2138857.0,2137864.0,2138858.0,3509.0,518.0,2991.0,994.0,1991.0,-807.0
116,4562.400337,3.5078004,2,17,1,2,2,1,4,2,-30,2.0,-0.9163121,2138864.0,2142373.0,2140466.0,0.0,2140466.0,0.0,2139382.0,2141373.0,2139382.0,2142373.0,2141380.0,2142373.0,3509.0,518.0,2991.0,993.0,1991.0,-914.0
117,4565.916479,3.4994851,2,18,1,1,2,2,1,2,-40,2.0,-0.1330937,2142380.0,2145881.0,2144756.0,0.0,2144756.0,0.0,2142890.0,2144881.0,2142890.0,2145881.0,2144888.0,2145881.0,3501.0,510.0,2991.0,993.0,1991.0,-132.0
118,4569.424341,3.5077951,2,19,1,1,2,2,1,1,-45,1.0,-0.9829636,2145888.0,2149397.0,2147422.0,2147422.0,0.0,0.0,2146406.0,2148397.0,2146406.0,2149397.0,2148404.0,2149397.0,3509.0,518.0,2991.0,993.0,1991.0,-982.0
119,4572.940459,3.507858,2,20,1,2,1,2,1,1,-40,2.0,-0.691285,2149404.0,2152914.0,2151230.0,0.0,2151230.0,0.0,2149922.0,2151913.0,2149922.0,2152914.0,2151920.0,2152914.0,3510.0,518.0,2992.0,994.0,1991.0,-690.0
120,4576.456651,3.5078547,2,21,1,2,1,2,2,2,-45,2.0,-0.7412712,2152920.0,2156430.0,2154697.0,0.0,2154697.0,0.0,2153438.0,2155429.0,2153438.0,2156430.0,2155436.0,2156430.0,3510.0,518.0,2992.0,994.0,1991.0,-739.0
121,4579.972862,3.5077794,2,22,1,1,1,1,1,1,-35,2.0,-0.6996943,2156436.0,2159945.0,2158254.0,0.0,2158254.0,0.0,2156955.0,2158946.0,2156955.0,2159945.0,2158952.0,2159945.0,3509.0,519.0,2990.0,993.0,1991.0,-698.0
122,4583.488973,3.7077997,2,23,1,1,2,1,2,1,-40,1.0,-0.741395,2159952.0,2163661.0,2161929.0,2161929.0,0.0,0.0,2160671.0,2162662.0,2160671.0,2163661.0,2162669.0,2163662.0,3709.0,719.0,2990.0,993.0,1991.0,-740.0
123,4587.205104,3.507833,2,24,1,2,1,2,2,1,-50,2.0,-0.324679,2163668.0,2167178.0,2165861.0,0.0,2165861.0,0.0,2164186.0,2166178.0,2164186.0,2167178.0,2166185.0,2167178.0,3510.0,518.0,2992.0,993.0,1992.0,-324.0
124,4590.721296,3.5078028,2,25,1,2,2,2,4,2,-55,1.0,-0.9409828,2167185.0,2170694.0,2168762.0,2168762.0,0.0,0.0,2167702.0,2169695.0,2167702.0,2170694.0,2169701.0,2170694.0,3509.0,517.0,2992.0,993.0,1993.0,-939.0
125,4594.237417,3.5078419,2,26,1,1,2,2,2,2,-50,1.0,-1.0413536,2170701.0,2174210.0,2172177.0,2172177.0,0.0,0.0,2171219.0,2173210.0,2171219.0,2174210.0,2173217.0,2174211.0,3509.0,518.0,2991.0,994.0,1991.0,-1040.0
126,4597.753648,3.5077654,2,27,1,1,2,1,3,1,-35,1.0,-0.5330555,2174217.0,2177727.0,2176201.0,2176201.0,0.0,0.0,2174735.0,2176726.0,2174735.0,2177727.0,2176733.0,2177727.0,3510.0,518.0,2992.0,994.0,1991.0,-532.0
127,4601.269754,3.5078177,2,28,1,1,2,1,4,2,-30,2.0,-0.8997325,2177733.0,2181242.0,2179351.0,0.0,2179351.0,0.0,2178251.0,2180242.0,2178251.0,2181242.0,2180249.0,2181242.0,3509.0,518.0,2991.0,993.0,1991.0,-898.0
128,4604.785906,3.5078275,2,29,1,1,2,2,5,1,-45,1.0,-0.9996786,2181249.0,2184758.0,2182767.0,2182767.0,0.0,0.0,2181768.0,2183759.0,2181768.0,2184758.0,2183765.0,2184758.0,3509.0,519.0,2990.0,993.0,1991.0,-998.0
129,4608.302079,3.5078302,2,30,1,2,1,1,1,2,-35,2.0,-0.932976,2184765.0,2188274.0,2186350.0,0.0,2186350.0,0.0,2185284.0,2187275.0,2185284.0,2188274.0,2187282.0,2188275.0,3509.0,519.0,2990.0,993.0,1991.0,-932.0
130,4611.81823,3.5078254,2,31,1,2,2,2,5,2,-40,1.0,-1.0995396,2188281.0,2191791.0,2189700.0,2189700.0,0.0,0.0,2188799.0,2190791.0,2188799.0,2191791.0,2190798.0,2191791.0,3510.0,518.0,2992.0,993.0,1992.0,-1098.0
131,4615.334386,3.5078293,2,32,1,1,2,2,4,2,-35,2.0,-0.6163668,2191798.0,2195307.0,2193699.0,0.0,2193699.0,0.0,2192316.0,2194307.0,2192316.0,2195307.0,2194314.0,2195307.0,3509.0,518.0,2991.0,993.0,1991.0,-615.0
132,4618.850551,3.5078612,2,33,1,2,1,1,4,1,-40,2.0,-0.3997192,2195314.0,2198823.0,2197432.0,0.0,2197432.0,0.0,2195832.0,2197823.0,2195832.0,2198824.0,2197830.0,2198824.0,3509.0,518.0,2992.0,994.0,1991.0,-398.0
133,4622.366755,3.5078513,2,34,1,2,2,1,1,1,-45,1.0,-0.9997342,2198830.0,2202340.0,2200348.0,2200348.0,0.0,0.0,2199348.0,2201339.0,2199348.0,2202340.0,2201346.0,2202340.0,3510.0,518.0,2992.0,994.0,1991.0,-998.0
134,4625.883112,3.5077199,2,35,1,2,1,2,2,2,-40,2.0,-1.216376,2202346.0,2205855.0,2203648.0,0.0,2203648.0,0.0,2202864.0,2204856.0,2202865.0,2205855.0,2204863.0,2205855.0,3509.0,519.0,2990.0,992.0,1992.0,-1215.0
135,4629.399088,3.5078035,2,36,1,1,1,2,1,2,-45,1.0,-0.8496863,2205862.0,2209371.0,2207530.0,2207530.0,0.0,0.0,2206381.0,2208372.0,2206381.0,2209371.0,2208378.0,2209371.0,3509.0,519.0,2990.0,993.0,1991.0,-848.0
136,4632.91524,3.5079732,2,37,1,2,2,1,3,1,-40,1.0,-0.7742292,2209378.0,2212888.0,2211123.0,2211123.0,0.0,0.0,2209896.0,2211888.0,2209896.0,2212888.0,2211895.0,2212888.0,3510.0,518.0,2992.0,993.0,1992.0,-772.0
137,4636.431414,3.9994631,2,38,1,1,2,2,5,1,-40,1.0,-1.0495936,2212894.0,2216896.0,2214855.0,2214855.0,0.0,0.0,2213904.0,2215895.0,2213904.0,2216896.0,2215903.0,2216896.0,4002.0,1010.0,2992.0,993.0,1991.0,-1048.0
138,4640.439192,3.507816,2,39,1,1,2,2,3,1,-35,1.0,-0.9328788,2216902.0,2220412.0,2218487.0,2218487.0,0.0,0.0,2217420.0,2219411.0,2217420.0,2220412.0,2219418.0,2220412.0,3510.0,518.0,2992.0,994.0,1991.0,-931.0
139,4643.955328,3.9994253,2,40,1,2,1,2,4,1,-30,2.0,-1.2496151,2220418.0,2224419.0,2222178.0,0.0,2222178.0,0.0,2221428.0,2223420.0,2221428.0,2224419.0,2223426.0,2224419.0,4001.0,1010.0,2991.0,993.0,1992.0,-1248.0
140,4737.100309,3.7661091,2,41,1,1,1,2,5,2,-35,2.0,-0.3497199,2313563.0,2317330.0,2315989.0,0.0,2315989.0,0.0,2314340.0,2316331.0,2314340.0,2317330.0,2316337.0,2317330.0,3767.0,777.0,2990.0,993.0,1991.0,-348.0
141,4740.874762,3.5078158,2,42,1,2,1,2,1,1,-40,2.0,-0.8996581,2317337.0,2320846.0,2318955.0,0.0,2318955.0,0.0,2317856.0,2319847.0,2317856.0,2320847.0,2319854.0,2320847.0,3509.0,519.0,2991.0,993.0,1991.0,-899.0
142,4744.390923,3.5078175,2,43,1,2,2,2,4,1,-45,2.0,-0.8163206,2320853.0,2324363.0,2322555.0,0.0,2322555.0,0.0,2321371.0,2323363.0,2321371.0,2324363.0,2323370.0,2324363.0,3510.0,518.0,2992.0,993.0,1992.0,-815.0
143,4747.907074,3.5078297,2,44,1,2,2,2,2,1,-50,1.0,-1.1412991,2324370.0,2327879.0,2325746.0,2325746.0,0.0,0.0,2324887.0,2326880.0,2324888.0,2327879.0,2326886.0,2327879.0,3509.0,518.0,2991.0,993.0,1993.0,-1140.0
144,4751.423247,3.5078608,2,45,1,1,2,1,3,2,-35,2.0,-0.9246689,2327886.0,2331395.0,2329479.0,0.0,2329479.0,0.0,2328404.0,2330395.0,2328404.0,2331395.0,2330402.0,2331395.0,3509.0,518.0,2991.0,993.0,1991.0,-923.0
145,4754.939436,3.5077931,2,46,1,2,1,2,3,2,-45,1.0,-0.5997007,2331402.0,2334912.0,2333320.0,2333320.0,0.0,0.0,2331920.0,2333911.0,2331920.0,2334912.0,2333918.0,2334912.0,3510.0,518.0,2992.0,994.0,1991.0,-598.0
146,4758.45556,3.5078443,2,47,1,1,1,1,2,2,-40,2.0,-0.0914262,2334918.0,2338427.0,2337344.0,0.0,2337344.0,0.0,2335436.0,2337427.0,2335436.0,2338427.0,2337434.0,2338427.0,3509.0,518.0,2991.0,993.0,1991.0,-90.0
147,4761.971796,3.5077626,2,48,1,2,1,2,5,2,-40,2.0,-0.591364,2338434.0,2341943.0,2340361.0,0.0,2340361.0,0.0,2338953.0,2340944.0,2338953.0,2341943.0,2340950.0,2341943.0,3509.0,519.0,2990.0,993.0,1991.0,-589.0
148,4765.487902,3.5078284,2,49,1,2,2,2,1,1,-45,1.0,-1.0912972,2341950.0,2345460.0,2343376.0,2343376.0,0.0,0.0,2342469.0,2344460.0,2342469.0,2345460.0,2344467.0,2345460.0,3510.0,519.0,2991.0,993.0,1991.0,-1091.0
149,4769.004052,3.5078405,2,50,1,2,1,1,3,1,-45,2.0,-0.7913409,2345466.0,2348976.0,2347193.0,0.0,2347193.0,0.0,2345984.0,2347976.0,2345984.0,2348976.0,2347983.0,2348976.0,3510.0,518.0,2992.0,993.0,1992.0,-790.0
150,4772.520234,3.5077981,2,51,1,1,2,2,4,1,-40,1.0,-0.7494381,2348983.0,2352492.0,2350751.0,2350751.0,0.0,0.0,2349501.0,2351492.0,2349501.0,2352492.0,2351499.0,2352492.0,3509.0,518.0,2991.0,993.0,1991.0,-748.0
151,4776.036377,3.5078279,2,52,1,1,1,2,3,2,-35,2.0,-0.608128,2352499.0,2356008.0,2354408.0,0.0,2354408.0,0.0,2353017.0,2355008.0,2353017.0,2356009.0,2355015.0,2356009.0,3509.0,518.0,2992.0,994.0,1991.0,-607.0
152,4779.552535,3.5078325,2,53,1,2,2,2,3,1,-40,1.0,-0.8163071,2356015.0,2359524.0,2357717.0,2357717.0,0.0,0.0,2356533.0,2358524.0,2356533.0,2359524.0,2358531.0,2359524.0,3509.0,518.0,2991.0,993.0,1991.0,-814.0
153,4783.068701,3.5078324,2,54,1,2,1,1,3,1,-50,1.0,-0.6997095,2359531.0,2363040.0,2361349.0,2361349.0,0.0,0.0,2360049.0,2362041.0,2360049.0,2363040.0,2362047.0,2363040.0,3509.0,518.0,2991.0,993.0,1992.0,-698.0
154,4786.584864,3.507834,2,55,1,2,1,2,4,1,-35,2.0,-0.7747146,2363047.0,2366556.0,2364790.0,0.0,2364790.0,0.0,2363565.0,2365557.0,2363565.0,2366556.0,2365563.0,2366556.0,3509.0,518.0,2991.0,993.0,1992.0,-773.0
155,4790.101083,3.5078373,2,56,1,2,1,2,3,1,-40,2.0,-0.6330258,2366563.0,2370073.0,2368448.0,0.0,2368448.0,0.0,2367081.0,2369073.0,2367081.0,2370073.0,2369080.0,2370073.0,3510.0,518.0,2992.0,993.0,1992.0,-632.0
156,4793.617197,3.5078299,2,57,1,2,1,1,5,1,-45,1.0,-1.1329393,2370079.0,2373589.0,2371464.0,2371464.0,0.0,0.0,2370597.0,2372589.0,2370597.0,2373589.0,2372596.0,2373590.0,3510.0,518.0,2992.0,994.0,1992.0,-1132.0
157,4797.150069,3.5077891,2,58,1,1,1,2,5,2,-45,2.0,-0.5914089,2373614.0,2377121.0,2375539.0,0.0,2375539.0,0.0,2374131.0,2376122.0,2374131.0,2377121.0,2376129.0,2377121.0,3507.0,517.0,2990.0,992.0,1991.0,-590.0
158,4800.666191,3.5078416,2,59,1,2,1,2,5,1,-50,1.0,-0.7413831,2377128.0,2380638.0,2378904.0,2378904.0,0.0,0.0,2377647.0,2379638.0,2377647.0,2380638.0,2379645.0,2380638.0,3510.0,519.0,2991.0,993.0,1991.0,-741.0
159,4804.190705,3.5078286,2,60,1,1,2,2,2,2,-45,1.0,-0.4663729,2380654.0,2384162.0,2382704.0,2382704.0,0.0,0.0,2381171.0,2383162.0,2381171.0,2384162.0,2383169.0,2384162.0,3508.0,517.0,2991.0,993.0,1991.0,-465.0
160,4807.70685,3.4995146,2,61,1,1,2,2,4,2,-40,1.0,-0.8163167,2384169.0,2387670.0,2385862.0,2385862.0,0.0,0.0,2384679.0,2386671.0,2384679.0,2387670.0,2386677.0,2387670.0,3501.0,510.0,2991.0,993.0,1992.0,-815.0
161,4811.214684,3.5078327,2,62,1,2,2,1,1,2,-40,1.0,-0.7163061,2387677.0,2391186.0,2389478.0,2389478.0,0.0,0.0,2388195.0,2390186.0,2388195.0,2391186.0,2390193.0,2391187.0,3509.0,518.0,2991.0,994.0,1991.0,-715.0
162,4814.730852,3.5078431,2,63,1,1,1,1,1,1,-35,1.0,-0.5330432,2391193.0,2394703.0,2393177.0,2393177.0,0.0,0.0,2391711.0,2393702.0,2391711.0,2394703.0,2393709.0,2394703.0,3510.0,518.0,2992.0,994.0,1991.0,-532.0
163,4818.247025,3.5078527,2,64,1,1,1,1,3,2,-30,2.0,-0.6663504,2394709.0,2398218.0,2396561.0,0.0,2396561.0,0.0,2395227.0,2397218.0,2395227.0,2398218.0,2397225.0,2398218.0,3509.0,518.0,2991.0,993.0,1991.0,-664.0
164,4821.76318,3.4995005,2,65,1,2,2,1,5,2,-35,1.0,-0.7658699,2398225.0,2401726.0,2399969.0,2399969.0,0.0,0.0,2398735.0,2400727.0,2398735.0,2401726.0,2400733.0,2401727.0,3501.0,510.0,2991.0,994.0,1992.0,-764.0
165,4825.271009,3.5078226,2,66,1,1,1,2,4,2,-35,2.0,-0.5163678,2401733.0,2405243.0,2403734.0,0.0,2403734.0,0.0,2402251.0,2404242.0,2402251.0,2405243.0,2404249.0,2405243.0,3510.0,518.0,2992.0,994.0,1991.0,-515.0
166,4828.787161,3.5078442,2,67,1,1,2,2,3,1,-40,1.0,-0.8829926,2405249.0,2408759.0,2406884.0,2406884.0,0.0,0.0,2405767.0,2407758.0,2405767.0,2408759.0,2407765.0,2408759.0,3510.0,518.0,2992.0,994.0,1991.0,-881.0
167,4832.303334,3.5078875,2,68,1,1,2,2,5,2,-35,1.0,-1.1414427,2408765.0,2412275.0,2410142.0,2410142.0,0.0,0.0,2409284.0,2411275.0,2409284.0,2412275.0,2411282.0,2412275.0,3510.0,519.0,2991.0,993.0,1991.0,-1140.0
168,4835.819543,3.5079677,2,69,1,1,1,1,3,1,-30,2.0,-0.8580997,2412281.0,2415792.0,2413941.0,0.0,2413941.0,0.0,2412800.0,2414791.0,2412800.0,2415792.0,2414798.0,2415792.0,3511.0,519.0,2992.0,994.0,1991.0,-857.0
169,4839.335828,3.5076899,2,70,1,2,1,1,5,1,-35,2.0,-0.7994533,2415798.0,2419307.0,2417516.0,0.0,2417516.0,0.0,2416316.0,2418307.0,2416316.0,2419307.0,2418314.0,2419307.0,3509.0,518.0,2991.0,993.0,1991.0,-798.0
170,4842.85198,3.5078731,2,71,1,2,1,1,5,2,-40,2.0,-0.2663795,2419314.0,2422823.0,2421566.0,0.0,2421566.0,0.0,2419832.0,2421824.0,2419832.0,2422823.0,2421830.0,2422823.0,3509.0,518.0,2991.0,993.0,1992.0,-264.0
171,4846.368056,3.5078275,2,72,1,2,1,2,3,2,-30,1.0,-0.4079523,2422830.0,2426340.0,2424940.0,2424940.0,0.0,0.0,2423348.0,2425340.0,2423348.0,2426340.0,2425346.0,2426340.0,3510.0,518.0,2992.0,994.0,1992.0,-406.0
172,4849.884347,3.5077313,2,73,1,1,2,2,3,1,-25,1.0,-0.3164342,2426346.0,2429856.0,2428548.0,2428548.0,0.0,0.0,2426864.0,2428855.0,2426864.0,2429856.0,2428862.0,2429856.0,3510.0,518.0,2992.0,994.0,1991.0,-314.0
173,4853.400396,3.507818,2,74,1,1,2,1,2,2,-45,1.0,-0.6081564,2429862.0,2433372.0,2431772.0,2431772.0,0.0,0.0,2430380.0,2432373.0,2430381.0,2433372.0,2432379.0,2433372.0,3510.0,519.0,2991.0,993.0,1993.0,-607.0
174,4856.916641,3.507741,2,75,1,2,2,1,5,2,-40,2.0,-0.3997771,2433378.0,2436887.0,2435497.0,0.0,2435497.0,0.0,2433897.0,2435888.0,2433897.0,2436887.0,2435895.0,2436887.0,3509.0,519.0,2990.0,992.0,1991.0,-398.0
175,4860.432813,3.5077177,2,76,1,1,2,2,5,2,-20,2.0,-1.0412938,2436895.0,2440404.0,2438371.0,0.0,2438371.0,0.0,2437413.0,2439404.0,2437413.0,2440404.0,2439411.0,2440404.0,3509.0,518.0,2991.0,993.0,1991.0,-1040.0
176,4863.948975,3.5077337,2,77,1,2,2,1,3,1,-45,2.0,-0.6331026,2440411.0,2443920.0,2442296.0,0.0,2442296.0,0.0,2440928.0,2442920.0,2440928.0,2443920.0,2442927.0,2443920.0,3509.0,517.0,2992.0,993.0,1992.0,-631.0
177,4867.465076,3.5078146,2,78,1,1,2,1,4,2,-50,1.0,-0.799179,2443927.0,2447436.0,2445645.0,2445645.0,0.0,0.0,2444445.0,2446437.0,2444445.0,2447436.0,2446443.0,2447436.0,3509.0,518.0,2991.0,993.0,1992.0,-798.0
178,4870.981173,3.5079716,2,79,1,1,2,2,1,1,-25,2.0,-0.5246699,2447443.0,2450952.0,2449436.0,0.0,2449436.0,0.0,2447961.0,2449952.0,2447961.0,2450953.0,2449959.0,2450953.0,3509.0,518.0,2992.0,994.0,1991.0,-523.0
179,4874.497361,3.4995125,2,80,1,2,1,1,4,1,-45,1.0,-0.5330668,2450959.0,2454460.0,2452936.0,2452936.0,0.0,0.0,2451469.0,2453460.0,2451469.0,2454460.0,2453467.0,2454460.0,3501.0,510.0,2991.0,993.0,1991.0,-531.0
180,4878.005207,3.5244815,2,81,1,1,2,2,5,1,-30,2.0,-0.6996576,2454467.0,2457993.0,2456302.0,0.0,2456302.0,0.0,2455002.0,2456994.0,2455002.0,2457993.0,2457000.0,2457993.0,3526.0,535.0,2991.0,993.0,1992.0,-698.0
181,4881.538021,3.5078513,2,82,1,2,2,2,4,2,-35,1.0,-0.8747716,2458000.0,2461509.0,2459643.0,2459643.0,0.0,0.0,2458518.0,2460509.0,2458518.0,2461510.0,2460516.0,2461510.0,3509.0,518.0,2992.0,994.0,1991.0,-873.0
182,4885.054202,3.5078458,2,83,1,2,2,1,1,1,-40,1.0,-0.841162,2461516.0,2465026.0,2463193.0,2463193.0,0.0,0.0,2462034.0,2464025.0,2462034.0,2465026.0,2464032.0,2465026.0,3510.0,518.0,2992.0,994.0,1991.0,-839.0
183,4888.570363,3.5078072,2,84,1,1,1,2,5,2,-30,1.0,-1.1742621,2465032.0,2468541.0,2466376.0,2466376.0,0.0,0.0,2465550.0,2467542.0,2465550.0,2468541.0,2467548.0,2468542.0,3509.0,518.0,2991.0,994.0,1992.0,-1172.0
184,4892.086669,3.5076713,2,85,1,2,2,1,3,1,-35,1.0,0.1175675,2468548.0,2472057.0,2471184.0,2471184.0,0.0,0.0,2469067.0,2471058.0,2469067.0,2472058.0,2471065.0,2472058.0,3509.0,519.0,2991.0,993.0,1991.0,119.0
185,4895.602837,3.5076683,2,86,1,2,1,2,2,1,-25,2.0,-0.799794,2472065.0,2475574.0,2473783.0,0.0,2473783.0,0.0,2472582.0,2474574.0,2472582.0,2475574.0,2474581.0,2475574.0,3509.0,517.0,2992.0,993.0,1992.0,-798.0
186,4899.118929,3.5077747,2,87,1,2,2,1,4,2,-30,2.0,-0.3493029,2475581.0,2479090.0,2477750.0,0.0,2477750.0,0.0,2476098.0,2478090.0,2476098.0,2479090.0,2478097.0,2479090.0,3509.0,517.0,2992.0,993.0,1992.0,-347.0
187,4902.635031,3.5078358,2,88,1,2,1,2,1,2,-30,2.0,-1.141319,2479097.0,2482606.0,2480473.0,0.0,2480473.0,0.0,2479615.0,2481606.0,2479615.0,2482606.0,2481613.0,2482606.0,3509.0,518.0,2991.0,993.0,1991.0,-1140.0
188,4906.151201,3.5078354,2,89,1,1,2,1,4,1,-35,2.0,-0.2080913,2482613.0,2486122.0,2484922.0,0.0,2484922.0,0.0,2483131.0,2485122.0,2483131.0,2486123.0,2485129.0,2486123.0,3509.0,518.0,2992.0,994.0,1991.0,-207.0
189,4909.667363,3.5078342,2,90,1,2,2,2,1,1,-35,2.0,-1.0162804,2486129.0,2489638.0,2487631.0,0.0,2487631.0,0.0,2486647.0,2488638.0,2486647.0,2489638.0,2488645.0,2489638.0,3509.0,518.0,2991.0,993.0,1991.0,-1014.0
190,4913.183499,3.5078558,2,91,1,1,1,2,4,1,-40,1.0,-0.8663317,2489645.0,2493154.0,2491297.0,2491297.0,0.0,0.0,2490164.0,2492155.0,2490164.0,2493154.0,2492161.0,2493154.0,3509.0,519.0,2990.0,993.0,1991.0,-864.0
191,4916.699694,3.5078272,2,92,1,2,2,2,4,2,-35,1.0,-0.9663083,2493161.0,2496670.0,2494712.0,2494712.0,0.0,0.0,2493679.0,2495671.0,2493679.0,2496671.0,2495677.0,2496671.0,3509.0,518.0,2992.0,994.0,1992.0,-965.0
192,4920.215835,3.5078736,2,93,1,1,1,2,5,1,-30,2.0,-1.0579931,2496677.0,2500187.0,2498138.0,0.0,2498138.0,0.0,2497195.0,2499187.0,2497195.0,2500187.0,2499194.0,2500187.0,3510.0,518.0,2992.0,993.0,1992.0,-1056.0
193,4923.732041,3.5077955,2,94,1,1,2,2,5,1,-35,2.0,-0.4829415,2500193.0,2503703.0,2502229.0,0.0,2502229.0,0.0,2500711.0,2502702.0,2500711.0,2503703.0,2502710.0,2503703.0,3510.0,518.0,2992.0,993.0,1991.0,-481.0
194,4927.248167,3.5078373,2,95,1,2,1,2,1,1,-40,1.0,-0.6581663,2503710.0,2507219.0,2505569.0,2505569.0,0.0,0.0,2504228.0,2506219.0,2504228.0,2507220.0,2506226.0,2507220.0,3509.0,518.0,2992.0,994.0,1991.0,-657.0
195,4930.76444,3.5077419,2,96,1,1,2,2,5,2,-35,1.0,-0.7495185,2507226.0,2510736.0,2508994.0,2508994.0,0.0,0.0,2507744.0,2509735.0,2507744.0,2510736.0,2509742.0,2510736.0,3510.0,518.0,2992.0,994.0,1991.0,-748.0
196,4934.280515,3.5078349,2,97,1,1,2,2,2,1,-30,1.0,-0.1663805,2510742.0,2514251.0,2513093.0,2513093.0,0.0,0.0,2511260.0,2513251.0,2511260.0,2514251.0,2513258.0,2514251.0,3509.0,518.0,2991.0,993.0,1991.0,-165.0
197,4937.796766,3.5077728,2,98,1,1,1,2,4,1,-25,2.0,-0.891344,2514258.0,2517767.0,2515884.0,0.0,2515884.0,0.0,2514777.0,2516768.0,2514777.0,2517767.0,2516774.0,2517767.0,3509.0,519.0,2990.0,993.0,1991.0,-890.0
198,4941.312861,3.5078304,2,99,1,2,1,2,3,2,-30,2.0,-1.1246312,2517774.0,2521283.0,2519167.0,0.0,2519167.0,0.0,2518292.0,2520284.0,2518292.0,2521284.0,2520291.0,2521284.0,3509.0,518.0,2992.0,993.0,1992.0,-1124.0
199,4944.829025,3.5079783,2,100,1,1,1,2,3,1,-35,2.0,-0.7163284,2521290.0,2524800.0,2523092.0,0.0,2523092.0,0.0,2521808.0,2523800.0,2521808.0,2524800.0,2523807.0,2524800.0,3510.0,518.0,2992.0,993.0,1992.0,-715.0
