,onset,duration,run_number,trial_number,task,ext_mot_pos,ext_mot_ver_dir,staircase_num,fix_off_prct,trial_type,ext_mot_ori,direction_report,response_duration,trial_onset,trial_offset,button_press_onset,button_left,button_right,fix_break,motion_onset,motion_offset,fixation_onset,fixation_offset,response_onset,response_offset,trial_duration,fix_check_duration,fixation_duration,response_duration,motion_duration,reaction_time,miss_time_trial,blink_trial,no_saccade_trial,main_sac_trial,innacurate_sac_trial,early_sac_trial,late_sac_trial,sac_x_onset_trial,sac_x_offset_trial,sac_y_onset_trial,sac_y_offset_trial,sac_t_onset_trial,sac_t_offset_trial,sac_dur_trial,sac_vpeak_trial,sac_dist_trial,sac_amp_trial,sac_dist_ang_trial,sac_lat_trial,sac_amp_ang_trial,cor_sac_trial,cor_sac_x_onset_trial,cor_sac_x_offset_trial,cor_sac_y_onset_trial,cor_sac_y_offset_trial,cor_sac_t_onset_trial,cor_sac_t_offset_trial,cor_sac_dur_trial,cor_sac_vpeak_trial,cor_sac_dist_trial,cor_sac_amp_trial,cor_sac_dist_ang_trial,cor_sac_amp_ang_trial,gabor_sac_onset_x,gabor_sac_onset_y,sac_onset_gabor_path_prct
0,14665.94643,3.8077934,1,1,2,2,1,2,5,2,-28.36538462,n/a,n/a,12242351.0,12246159.0,0.0,0.0,0.0,12244002.0,12243158.0,12245159.0,12243158.0,12244359.0,12245166.0,12246160.0,3808.0,807.0,1201.0,994.0,2001.0,-12245166.0,0.0,1.0,0.0,0.0,0.0,0.0,0.0,0.0,0.0,0.0,0.0,0.0,0.0,0.0,0.0,0.0,0.0,0.0,0.0,0.0,0.0,0.0,0.0,0.0,0.0,0.0,0.0,0.0,0.0,0.0,0.0,0.0,0.0,0.0,0.0,0.0
1,14669.76262,3.5077727,1,2,2,2,2,2,4,2,-28.36538462,n/a,n/a,12246166.0,12249676.0,0.0,0.0,0.0,12247909.0,12246683.0,12248676.0,12246683.0,12247676.0,12248683.0,12249676.0,3510.0,517.0,993.0,993.0,1993.0,-12248683.0,0.0,0.0,0.0,1.0,0.0,0.0,0.0,-0.5226913530377578,10.481519317869722,-0.010384596417967108,0.1730766069661447,12247887.0,12247944.0,57.0,458.076449737939,11.005739888933466,11.08890407496244,-0.016670364996377546,211.0,-0.046528893508495976,0.0,0.0,0.0,0.0,0.0,0.0,0.0,0.0,0.0,0.0,0.0,0.0,0.0,9.805192122621218,0.36081047973316194,0.6
2,14673.27873,3.9994193,1,3,2,1,2,1,1,2,-28.36538462,n/a,n/a,12249682.0,12253683.0,0.0,0.0,0.0,12252948.0,12250692.0,12252682.0,12250692.0,12251082.0,12252691.0,12253683.0,4001.0,1010.0,390.0,992.0,1990.0,-12252691.0,0.0,1.0,0.0,0.0,0.0,0.0,0.0,0.0,0.0,0.0,0.0,0.0,0.0,0.0,0.0,0.0,0.0,0.0,0.0,0.0,0.0,0.0,0.0,0.0,0.0,0.0,0.0,0.0,0.0,0.0,0.0,0.0,0.0,0.0,0.0,0.0
3,14694.93391,3.5078334,1,4,2,1,1,1,1,1,-28.36538462,n/a,n/a,12271337.0,12274846.0,0.0,0.0,0.0,12273181.0,12271854.0,12273847.0,12271854.0,12272247.0,12273853.0,12274847.0,3509.0,517.0,393.0,994.0,1993.0,-12273853.0,0.0,0.0,0.0,0.0,0.0,0.0,1.0,-0.6646141707499973,-10.443442464337174,-0.2561533783098934,-0.11423056059765394,12273158.0,12273204.0,46.0,370.3879827314313,9.779858121754552,9.843327241849698,-3.127080398126565,911.0,-3.120491318940071,0.0,0.0,0.0,0.0,0.0,0.0,0.0,0.0,0.0,0.0,0.0,0.0,0.0,0.0,0.0,0.0
4,14698.45006,3.6661386,1,5,2,2,2,1,4,2,-28.36538462,n/a,n/a,12274853.0,12278522.0,0.0,0.0,0.0,12276755.0,12275529.0,12277521.0,12275529.0,12276522.0,12277528.0,12278523.0,3669.0,676.0,993.0,995.0,1992.0,-12277528.0,0.0,1.0,0.0,0.0,0.0,0.0,0.0,0.0,0.0,0.0,0.0,0.0,0.0,0.0,0.0,0.0,0.0,0.0,0.0,0.0,0.0,0.0,0.0,0.0,0.0,0.0,0.0,0.0,0.0,0.0,0.0,0.0,0.0,0.0,0.0,0.0
5,14702.13287,3.8077847,1,6,2,1,2,1,5,1,-28.36538462,n/a,n/a,12278538.0,12282346.0,0.0,0.0,0.0,12280794.0,12279354.0,12281345.0,12279355.0,12280544.0,12281353.0,12282346.0,3808.0,817.0,1189.0,993.0,1991.0,-12281353.0,0.0,0.0,0.0,1.0,0.0,0.0,0.0,-0.498460628062496,-10.429596335779879,-0.1730766069661447,1.0592288346328065,12280775.0,12280843.0,68.0,415.61856562090014,10.007298993559333,10.02590761481096,-3.0181386370041468,231.0,-3.0117561499858354,0.0,0.0,0.0,0.0,0.0,0.0,0.0,0.0,0.0,0.0,0.0,0.0,0.0,-10.409494109592131,0.7584383553574634,0.7125
6,14705.94898,3.9994403,1,7,2,1,1,2,3,2,-28.36538462,n/a,n/a,12282352.0,12286353.0,0.0,0.0,0.0,12285345.0,12283361.0,12285352.0,12283361.0,12284152.0,12285361.0,12286353.0,4001.0,1009.0,791.0,992.0,1991.0,-12285361.0,0.0,1.0,0.0,0.0,0.0,0.0,0.0,0.0,0.0,0.0,0.0,0.0,0.0,0.0,0.0,0.0,0.0,0.0,0.0,0.0,0.0,0.0,0.0,0.0,0.0,0.0,0.0,0.0,0.0,0.0,0.0,0.0,0.0,0.0,0.0,0.0
7,14709.95678,3.8493952,1,8,2,1,1,1,1,2,-28.36538462,n/a,n/a,12286360.0,12290211.0,0.0,0.0,0.0,12288103.0,12287219.0,12289211.0,12287220.0,12287610.0,12289218.0,12290211.0,3851.0,860.0,390.0,993.0,1992.0,-12289218.0,0.0,0.0,0.0,1.0,0.0,0.0,0.0,-0.8203831170195276,-10.384596417968684,-0.43269151741536177,0.13153822129426843,12288085.0,12288141.0,56.0,380.753237843371,9.58084188702105,9.660726910343868,-3.0826671020175516,475.0,3.082437058134621,0.0,0.0,0.0,0.0,0.0,0.0,0.0,0.0,0.0,0.0,0.0,0.0,0.0,-10.123245799974331,0.22826785452506276,0.43333333333333335
8,14713.81457,3.8827217,1,9,2,2,2,1,1,1,-28.36538462,n/a,n/a,12290218.0,12294102.0,0.0,0.0,0.0,12291760.0,12291111.0,12293102.0,12291111.0,12291501.0,12293109.0,12294102.0,3884.0,893.0,390.0,993.0,1991.0,-12293109.0,0.0,1.0,0.0,0.0,0.0,0.0,0.0,0.0,0.0,0.0,0.0,0.0,0.0,0.0,0.0,0.0,0.0,0.0,0.0,0.0,0.0,0.0,0.0,0.0,0.0,0.0,0.0,0.0,0.0,0.0,0.0,0.0,0.0,0.0,0.0,0.0
9,14717.70562,3.5078174,1,10,2,1,1,2,3,1,-28.36538462,n/a,n/a,12294109.0,12297619.0,0.0,0.0,0.0,12295435.0,12294625.0,12296618.0,12294625.0,12295419.0,12296625.0,12297619.0,3510.0,516.0,794.0,994.0,1993.0,-12296625.0,0.0,0.0,0.0,1.0,0.0,0.0,0.0,-0.9761520632890578,-10.574980685631443,-0.2423072497526026,0.3426916817929658,12295421.0,12295480.0,59.0,399.1199761871655,9.616638428838263,9.649234271279687,-3.08072311599194,2.0,-3.0784130130925926,1.0,-9.57805942950645,-9.536521043834574,-0.3911531317434855,-0.4776914352265578,12296492.0,12296514.0,22.0,15.044285765574191,0.09599122592171574,0.1101724712137096,1.123276351637712,0.8076167287241471,-10.186856535444953,0.3460835213767069,0.4
10,14721.22181,3.7994209,1,11,2,1,1,1,4,1,-28.36538462,n/a,n/a,12297625.0,12301426.0,0.0,0.0,0.0,12299691.0,12298434.0,12300426.0,12298434.0,12299424.0,12300433.0,12301426.0,3801.0,809.0,990.0,993.0,1992.0,-12300433.0,0.0,0.0,0.0,1.0,0.0,0.0,0.0,-0.8307677134374947,-10.73767269617962,-0.2423072497526026,-0.5365374815950487,12299676.0,12299731.0,55.0,398.2116242429597,9.911273266660084,9.942024696353984,3.111901870399202,252.0,-3.1029359623287514,0.0,0.0,0.0,0.0,0.0,0.0,0.0,0.0,0.0,0.0,0.0,0.0,0.0,-9.765435412952078,-0.434445271515441,0.6208333333333333
11,14725.02957,3.8244532,1,12,2,2,1,1,2,2,-28.36538462,n/a,n/a,12301433.0,12305259.0,0.0,0.0,0.0,12303049.0,12302266.0,12304258.0,12302266.0,12302859.0,12304265.0,12305259.0,3826.0,833.0,593.0,994.0,1992.0,-12304265.0,0.0,1.0,0.0,0.0,0.0,0.0,0.0,0.0,0.0,0.0,0.0,0.0,0.0,0.0,0.0,0.0,0.0,0.0,0.0,0.0,0.0,0.0,0.0,0.0,0.0,0.0,0.0,0.0,0.0,0.0,0.0,0.0,0.0,0.0,0.0,0.0
12,14728.86239,3.6661439,1,13,2,2,1,2,5,1,-28.36538462,n/a,n/a,12305265.0,12308933.0,0.0,0.0,0.0,12306725.0,12305941.0,12307933.0,12305941.0,12307133.0,12307940.0,12308933.0,3668.0,676.0,1192.0,993.0,1992.0,-12307940.0,0.0,0.0,0.0,0.0,0.0,1.0,0.0,-0.6473065100533828,9.083060333583278,-0.01384612855729079,0.079615239204425,12306709.0,12306769.0,60.0,417.80667429345596,9.730815687238534,9.718777169786183,-0.009604827364110521,-424.0,0.04346636640658266,0.0,0.0,0.0,0.0,0.0,0.0,0.0,0.0,0.0,0.0,0.0,0.0,0.0,0.0,0.0,0.0
13,14732.53684,3.5328242,1,14,2,2,1,2,4,1,-28.36538462,n/a,n/a,12308940.0,12312474.0,0.0,0.0,0.0,12310766.0,12309483.0,12311474.0,12309483.0,12310473.0,12311481.0,12312474.0,3534.0,543.0,990.0,993.0,1991.0,-12311481.0,0.0,0.0,0.0,1.0,0.0,0.0,0.0,-0.6923064278645789,9.159214040648376,-0.08307677134374868,-1.0557673024934828,12310740.0,12310789.0,49.0,430.8151446845624,9.899423337291825,10.018284604947718,0.0984160871255535,267.0,0.10245349023462001,0.0,0.0,0.0,0.0,0.0,0.0,0.0,0.0,0.0,0.0,0.0,0.0,0.0,10.250467270915575,-0.463899188228351,0.6291666666666667
14,14736.07801,3.7661156,1,15,2,1,1,1,3,1,-28.36538462,n/a,n/a,12312481.0,12316248.0,0.0,0.0,0.0,12314707.0,12313257.0,12315249.0,12313257.0,12314047.0,12315255.0,12316249.0,3767.0,776.0,790.0,994.0,1992.0,-12315255.0,0.0,0.0,0.0,1.0,0.0,0.0,0.0,-0.7961523920442657,-10.564596089213476,-0.14538434985156315,-0.46384530666926704,12314686.0,12314734.0,48.0,430.38421599926426,9.773633390187197,9.786434579481718,3.109003203739251,639.0,3.087094775855037,1.0,-10.561134557074151,-10.60959600702467,-0.4742299030872381,-0.6092296565208302,12314736.0,12314759.0,23.0,20.068263882582226,0.1434344643328004,0.16919068281524519,1.9154436424129195,2.6046819108497403,-9.590505890407865,-0.7584383553574634,0.7125
15,14739.8525,3.9994234,1,16,2,2,2,1,1,2,-28.36538462,n/a,n/a,12316255.0,12320257.0,0.0,0.0,0.0,12318349.0,12317265.0,12319256.0,12317265.0,12317655.0,12319263.0,12320257.0,4002.0,1010.0,390.0,994.0,1991.0,-12319263.0,0.0,1.0,0.0,0.0,0.0,0.0,0.0,0.0,0.0,0.0,0.0,0.0,0.0,0.0,0.0,0.0,0.0,0.0,0.0,0.0,0.0,0.0,0.0,0.0,0.0,0.0,0.0,0.0,0.0,0.0,0.0,0.0,0.0,0.0,0.0,0.0
16,14743.86022,3.6578768,1,17,2,1,1,2,4,1,-28.36538462,n/a,n/a,12320263.0,12323923.0,0.0,0.0,0.0,12322130.0,12320930.0,12322922.0,12320930.0,12321923.0,12322929.0,12323923.0,3660.0,667.0,993.0,994.0,1992.0,-12322929.0,0.0,0.0,0.0,1.0,0.0,0.0,0.0,-0.7511524742330696,-11.059595185136647,0.13153822129426843,-0.24576878189192627,12322116.0,12322172.0,56.0,410.80899272224167,10.315345447372785,10.358519686470075,3.105007239296878,193.0,3.0934532265579544,1.0,-0.7511524742330696,-11.059595185136647,0.13153822129426843,-0.24576878189192627,12322116.0,12322172.0,56.0,410.80899272224167,10.315345447372785,10.358519686470075,3.105007239296878,3.0934532265579544,-9.82109480648887,-0.33135656302025185,0.5916666666666667
17,14747.52635,3.682804,1,18,2,1,1,1,5,2,-28.36538462,n/a,n/a,12323929.0,12327614.0,0.0,0.0,0.0,12326089.0,12324622.0,12326613.0,12324622.0,12325812.0,12326620.0,12327614.0,3685.0,693.0,1190.0,994.0,1991.0,-12326620.0,0.0,0.0,0.0,1.0,0.0,0.0,0.0,-0.9415367418958288,-10.253058196674415,-0.031153789253905263,-0.7096140885611933,12326069.0,12326115.0,46.0,338.74953141309993,9.336205877150421,9.343876250516015,3.0688587316147853,257.0,3.0730037927121447,1.0,-0.9415367418958288,-10.253058196674415,-0.031153789253905263,-0.7096140885611933,12326069.0,12326115.0,46.0,338.74953141309993,9.336205877150421,9.343876250516015,3.0688587316147853,3.0730037927121447,-9.566651864606381,-0.8026192304268285,0.725
18,14751.21748,3.5328267,1,19,2,2,2,1,5,1,-28.36538462,n/a,n/a,12327620.0,12331154.0,0.0,0.0,0.0,12329596.0,12328164.0,12330155.0,12328164.0,12329353.0,12330161.0,12331154.0,3534.0,544.0,1189.0,993.0,1991.0,-12330161.0,0.0,0.0,0.0,1.0,0.0,0.0,0.0,-0.7684601349296841,8.968829772985616,0.010384596417967108,0.26307644258854074,12329572.0,12329617.0,45.0,439.11194820602844,9.740568151802554,9.792162948753974,-0.025945118841525616,219.0,-0.04490962756222551,0.0,0.0,0.0,0.0,0.0,0.0,0.0,0.0,0.0,0.0,0.0,0.0,0.0,9.606408574275518,0.7289844386445494,0.7041666666666667
19,14754.75866,3.9994675,1,20,2,2,2,2,4,2,-28.36538462,n/a,n/a,12331161.0,12335162.0,0.0,0.0,0.0,12332355.0,12332171.0,12334163.0,12332171.0,12333162.0,12334169.0,12335162.0,4001.0,1010.0,991.0,993.0,1992.0,-12334169.0,0.0,1.0,0.0,0.0,0.0,0.0,0.0,0.0,0.0,0.0,0.0,0.0,0.0,0.0,0.0,0.0,0.0,0.0,0.0,0.0,0.0,0.0,0.0,0.0,0.0,0.0,0.0,0.0,0.0,0.0,0.0,0.0,0.0,0.0,0.0,0.0
20,14758.76645,3.7412095,1,21,2,2,1,2,3,2,-28.36538462,n/a,n/a,12335169.0,12338912.0,0.0,0.0,0.0,12337002.0,12335919.0,12337912.0,12335919.0,12336713.0,12337919.0,12338913.0,3743.0,750.0,794.0,994.0,1993.0,-12337919.0,0.0,0.0,0.0,1.0,0.0,0.0,0.0,-0.782306263486975,8.369984712882758,-0.1903842676627592,-0.7996139241835893,12336981.0,12337035.0,54.0,419.75983713519776,9.172545496781321,9.167037085245315,0.06646775208824089,268.0,0.07900189713040333,0.0,0.0,0.0,0.0,0.0,0.0,0.0,0.0,0.0,0.0,0.0,0.0,0.0,10.059635064503706,-0.1104521876734186,0.5291666666666667
21,14762.51594,3.5411033,1,22,2,1,2,2,4,1,-28.36538462,n/a,n/a,12338919.0,12342462.0,0.0,0.0,0.0,12340762.0,12339469.0,12341462.0,12339469.0,12340462.0,12341469.0,12342462.0,3543.0,550.0,993.0,993.0,1993.0,-12341469.0,0.0,0.0,0.0,1.0,0.0,0.0,0.0,-0.9380752097565052,-10.180366021748632,0.08999983562239604,0.8480753741341092,12340752.0,12340803.0,51.0,421.8152264478672,9.273328311643231,9.276105942471531,-3.0597533832087933,290.0,-3.051912528905371,0.0,0.0,0.0,0.0,0.0,0.0,0.0,0.0,0.0,0.0,0.0,0.0,0.0,-10.274321296717059,0.5080800632977162,0.6416666666666667
22,14766.06553,3.9242994,1,23,2,2,2,2,2,2,-28.36538462,n/a,n/a,12342468.0,12346394.0,0.0,0.0,0.0,12344495.0,12343401.0,12345394.0,12343401.0,12343994.0,12345401.0,12346394.0,3926.0,933.0,593.0,993.0,1993.0,-12345401.0,0.0,0.0,0.0,1.0,0.0,0.0,0.0,-0.46384530666926704,9.664597732989522,0.048461449950519736,-0.3530762782109368,12344476.0,12344531.0,55.0,452.3248946587872,10.13639930916051,10.089434557539116,0.03962381584727429,482.0,0.05698291781203013,0.0,0.0,0.0,0.0,0.0,0.0,0.0,0.0,0.0,0.0,0.0,0.0,0.0,9.924462251628631,0.13990610438632867,0.5375
23,14769.99817,3.7577914,1,24,2,1,2,1,3,2,-28.36538462,n/a,n/a,12346401.0,12350160.0,0.0,0.0,0.0,12348167.0,12347167.0,12349161.0,12347168.0,12347960.0,12349167.0,12350160.0,3759.0,767.0,792.0,993.0,1994.0,-12349167.0,0.0,0.0,0.0,1.0,0.0,0.0,0.0,-0.13153822129426843,-10.7653649532942,0.1349997534335921,0.20423039622005,12348149.0,12348208.0,59.0,434.6248868051442,10.634052089777303,10.66983803099279,-3.135082328903264,189.0,-3.1114168112460865,0.0,0.0,0.0,0.0,0.0,0.0,0.0,0.0,0.0,0.0,0.0,0.0,0.0,-9.988072987099256,-0.022090437534684506,0.49166666666666664
24,14773.7644,3.6493673,1,25,2,1,2,1,5,2,-28.36538462,n/a,n/a,12350167.0,12353818.0,0.0,0.0,0.0,12351010.0,12350827.0,12352818.0,12350827.0,12352018.0,12352825.0,12353818.0,3651.0,660.0,1191.0,993.0,1991.0,-12352825.0,0.0,0.0,0.0,0.0,0.0,0.0,1.0,-0.9415367418958288,-9.84459740423431,-0.27346103900650787,-1.3673051950325432,12352829.0,12352887.0,58.0,342.5508217097688,8.970004693139868,9.038152554897856,3.019343725238023,811.0,3.0086867985705505,0.0,0.0,0.0,0.0,0.0,0.0,0.0,0.0,0.0,0.0,0.0,0.0,0.0,0.0,0.0,0.0
25,14777.4221,3.7744763,1,26,2,2,1,2,2,1,-28.36538462,n/a,n/a,12353825.0,12357600.0,0.0,0.0,0.0,12355391.0,12354608.0,12356601.0,12354608.0,12355202.0,12356608.0,12357600.0,3775.0,783.0,594.0,992.0,1993.0,-12356608.0,0.0,0.0,0.0,1.0,0.0,0.0,0.0,-0.6923064278645789,9.612674750899679,-0.048461449950519736,-0.02769225711458158,12355370.0,12355433.0,63.0,436.5683730294559,10.305002108396517,10.348646178863794,-0.002015449068165312,168.0,-0.04182360481618823,0.0,0.0,0.0,0.0,0.0,0.0,0.0,0.0,0.0,0.0,0.0,0.0,0.0,9.773386754885905,0.419718313158982,0.37916666666666665
26,14781.20491,3.5244845,1,27,2,1,1,1,3,2,-28.36538462,n/a,n/a,12357608.0,12361134.0,0.0,0.0,0.0,12360384.0,12358141.0,12360134.0,12358141.0,12358934.0,12360140.0,12361134.0,3526.0,533.0,793.0,994.0,1993.0,-12360140.0,0.0,0.0,0.0,0.0,0.0,0.0,1.0,-0.3946146638828092,-10.793057210408783,-0.4707683709479144,-2.8384563542447734,12360369.0,12360431.0,62.0,470.647456319284,10.664593465277987,10.987747639572945,2.917713221142182,1435.0,2.920531776518102,0.0,0.0,0.0,0.0,0.0,0.0,0.0,0.0,0.0,0.0,0.0,0.0,0.0,0.0,0.0,0.0
27,14784.73775,3.999431,1,28,2,1,1,1,3,1,-28.36538462,n/a,n/a,12361140.0,12365142.0,0.0,0.0,0.0,12363200.0,12362150.0,12364141.0,12362150.0,12362940.0,12364148.0,12365142.0,4002.0,1010.0,790.0,994.0,1991.0,-12364148.0,0.0,1.0,0.0,0.0,0.0,0.0,0.0,0.0,0.0,0.0,0.0,0.0,0.0,0.0,0.0,0.0,0.0,0.0,0.0,0.0,0.0,0.0,0.0,0.0,0.0,0.0,0.0,0.0,0.0,0.0,0.0,0.0,0.0,0.0,0.0,0.0
28,14788.74562,3.5077031,1,29,2,1,2,1,5,2,-28.36538462,n/a,n/a,12365148.0,12368657.0,0.0,0.0,0.0,12367158.0,12365665.0,12367658.0,12365665.0,12366858.0,12367664.0,12368657.0,3509.0,517.0,1193.0,993.0,1993.0,-12367664.0,0.0,0.0,0.0,1.0,0.0,0.0,0.0,-0.6646141707499973,-10.512673107123632,0.13153822129426843,0.9207675490598907,12367142.0,12367200.0,58.0,411.7024860983472,9.879632976284794,9.911689135726553,-3.0616229660022682,284.0,-3.0485613793016535,0.0,0.0,0.0,0.0,0.0,0.0,0.0,0.0,0.0,0.0,0.0,0.0,0.0,-10.457202161195097,0.8468001054961936,0.7375
29,14792.26165,3.8078035,1,30,2,2,2,2,4,2,-28.36538462,n/a,n/a,12368664.0,12372473.0,0.0,0.0,0.0,12370714.0,12369481.0,12371474.0,12369482.0,12370474.0,12371481.0,12372473.0,3809.0,818.0,992.0,992.0,1993.0,-12371481.0,0.0,0.0,0.0,1.0,0.0,0.0,0.0,-0.9657674668710867,9.702674586522072,0.048461449950519736,-0.09346136776171972,12370693.0,12370745.0,52.0,438.2864877541454,10.669386014799306,10.716926423670865,0.013302265298904327,219.0,0.056878086554170884,0.0,0.0,0.0,0.0,0.0,0.0,0.0,0.0,0.0,0.0,0.0,0.0,0.0,9.797240780687387,0.3755374380896169,0.6041666666666666
30,14796.07779,3.9660831,1,31,2,1,1,1,5,1,-28.36538462,n/a,n/a,12372480.0,12376448.0,0.0,0.0,0.0,12374873.0,12373457.0,12375448.0,12373457.0,12374647.0,12375455.0,12376449.0,3968.0,977.0,1190.0,994.0,1991.0,-12375455.0,0.0,0.0,0.0,1.0,0.0,0.0,0.0,-0.8411523098554617,-9.633443943735614,-0.044999917811196055,-0.7199986849791604,12374836.0,12374910.0,74.0,334.1095853410531,8.818163953503994,8.917289754977775,3.0649712967159877,189.0,3.0486835257876264,0.0,0.0,0.0,0.0,0.0,0.0,0.0,0.0,0.0,0.0,0.0,0.0,0.0,-9.63821394201083,-0.6700766052187292,0.6875
31,14800.05243,3.9408789,1,32,2,1,2,2,2,1,-28.36538462,n/a,n/a,12376455.0,12380397.0,0.0,0.0,0.0,12378221.0,12377405.0,12379398.0,12377405.0,12377998.0,12379405.0,12380398.0,3942.0,950.0,593.0,993.0,1993.0,-12379405.0,0.0,0.0,0.0,1.0,0.0,0.0,0.0,-0.7096140885611933,-9.764982165029886,0.1869227355234355,0.294230231842446,12378206.0,12378268.0,62.0,422.5732299855389,9.056003859268975,9.151496255780826,-3.12974305532821,208.0,-0.045783961610563556,1.0,-10.678826649811128,-8.899599130199162,0.10730749631901051,0.34961474607161314,12378829.0,12378876.0,47.0,143.1185290057136,1.7956512383609526,1.8406271981260451,-0.13535407273008326,-0.1815355839924184,-9.813143464555043,-0.3460835213767069,0.4
32,14804.00167,3.6744645,1,33,2,1,1,2,1,1,-28.36538462,n/a,n/a,12380404.0,12384081.0,0.0,0.0,0.0,12381814.0,12381087.0,12383080.0,12381088.0,12381481.0,12383087.0,12384081.0,3677.0,684.0,393.0,994.0,1993.0,-12383087.0,0.0,0.0,0.0,1.0,0.0,0.0,0.0,-1.031536577518221,-7.442294099544223,-0.024230724975261835,0.6057681243815065,12381797.0,12381851.0,54.0,264.0797149521616,6.441638809837433,6.498859504823618,-3.0436350463756843,316.0,-3.009111516562441,0.0,0.0,0.0,0.0,0.0,0.0,0.0,0.0,0.0,0.0,0.0,0.0,0.0,-10.274321296717059,0.5080800632977162,0.3541666666666667
33,14807.68446,3.8827742,1,34,2,2,1,2,2,2,-28.36538462,n/a,n/a,12384087.0,12387971.0,0.0,0.0,0.0,12385770.0,12384980.0,12386971.0,12384980.0,12385570.0,12386978.0,12387971.0,3884.0,893.0,590.0,993.0,1991.0,-12386978.0,0.0,0.0,0.0,1.0,0.0,0.0,0.0,-0.9138444847812434,9.11421412283718,0.03461532139322895,-0.4119223245794236,12385737.0,12385804.0,67.0,386.5192419449553,10.037995582141921,10.129957198911384,0.044499427062395,167.0,0.06634086005650344,0.0,0.0,0.0,0.0,0.0,0.0,0.0,0.0,0.0,0.0,0.0,0.0,0.0,9.773386754885905,0.419718313158982,0.37916666666666665
34,14811.57567,3.6993524,1,35,2,2,1,2,5,2,-28.36538462,n/a,n/a,12387978.0,12391679.0,0.0,0.0,0.0,12390061.0,12388688.0,12390679.0,12388688.0,12389878.0,12390686.0,12391679.0,3701.0,710.0,1190.0,993.0,1991.0,-12390686.0,0.0,0.0,0.0,1.0,0.0,0.0,0.0,-0.8307677134374947,9.709597650800719,-0.1107690284583342,-1.211536248763013,12390035.0,12390106.0,71.0,427.7144402526142,10.597687978277614,10.629612225140642,0.10405629984177521,157.0,0.11357014852675394,0.0,0.0,0.0,0.0,0.0,0.0,0.0,0.0,0.0,0.0,0.0,0.0,0.0,10.337932032187684,-0.6258957301493603,0.675
35,14815.28338,3.9994157,1,36,2,2,1,2,4,2,-28.36538462,n/a,n/a,12391686.0,12395687.0,0.0,0.0,0.0,12393386.0,12392696.0,12394687.0,12392696.0,12393687.0,12394694.0,12395687.0,4001.0,1010.0,991.0,993.0,1991.0,-12394694.0,0.0,1.0,0.0,0.0,0.0,0.0,0.0,0.0,0.0,0.0,0.0,0.0,0.0,0.0,0.0,0.0,0.0,0.0,0.0,0.0,0.0,0.0,0.0,0.0,0.0,0.0,0.0,0.0,0.0,0.0,0.0,0.0,0.0,0.0,0.0,0.0
36,14819.29122,3.6993617,1,37,2,1,2,2,2,1,-28.36538462,n/a,n/a,12395694.0,12399394.0,0.0,0.0,0.0,12397143.0,12396404.0,12398395.0,12396404.0,12396993.0,12398401.0,12399394.0,3700.0,710.0,589.0,993.0,1991.0,-12398401.0,0.0,0.0,0.0,1.0,0.0,0.0,0.0,-0.782306263486975,-10.675365117671806,-0.024230724975261835,-0.2561533783098934,12397117.0,12397181.0,64.0,440.89074040228746,9.895776958354237,9.94299062340548,3.118153979602683,124.0,-3.1005008150366993,0.0,0.0,0.0,0.0,0.0,0.0,0.0,0.0,0.0,0.0,0.0,0.0,0.0,-9.733630045216765,-0.4933531049412611,0.35833333333333334
37,14822.99893,3.5078301,1,38,2,2,1,2,4,2,-28.36538462,n/a,n/a,12399401.0,12402911.0,0.0,0.0,0.0,12400611.0,12399918.0,12401911.0,12399918.0,12400911.0,12401918.0,12402911.0,3510.0,517.0,993.0,993.0,1993.0,-12401918.0,0.0,0.0,0.0,0.0,0.0,1.0,0.0,-1.007305852542963,8.36306164860411,0.03461532139322895,-0.2561533783098934,12400583.0,12400631.0,48.0,382.8437332285003,9.374877788178377,9.532057701207508,0.03102070717091616,-328.0,0.05849992644459919,0.0,0.0,0.0,0.0,0.0,0.0,0.0,0.0,0.0,0.0,0.0,0.0,0.0,0.0,0.0,0.0
38,14826.51508,3.7661705,1,39,2,2,2,1,4,2,-28.36538462,n/a,n/a,12402917.0,12406685.0,0.0,0.0,0.0,12404344.0,12403694.0,12405685.0,12403694.0,12404686.0,12405692.0,12406685.0,3768.0,777.0,992.0,993.0,1991.0,-12405692.0,0.0,0.0,0.0,0.0,0.0,1.0,0.0,-0.951921338313796,9.886135789906183,-0.1626920105481776,-0.6819218314466118,12404322.0,12404390.0,68.0,424.76665098967817,10.85048763519272,10.931254329000843,0.04787141452375587,-364.0,0.06623113720561298,0.0,0.0,0.0,0.0,0.0,0.0,0.0,0.0,0.0,0.0,0.0,0.0,0.0,0.0,0.0,0.0
39,14830.2896,3.6494477,1,40,2,1,2,2,3,2,-28.36538462,n/a,n/a,12406692.0,12410343.0,0.0,0.0,0.0,12408335.0,12407351.0,12409343.0,12407351.0,12408142.0,12409350.0,12410343.0,3651.0,659.0,791.0,993.0,1992.0,-12409350.0,0.0,0.0,0.0,1.0,0.0,0.0,0.0,-0.65769110647135,-10.574980685631443,-0.12807668915494866,0.5296144173164012,12408314.0,12408381.0,67.0,403.89568775883845,9.93907391000031,10.002333562958881,-3.0753719935646053,172.0,-3.0692002963633103,0.0,0.0,0.0,0.0,0.0,0.0,0.0,0.0,0.0,0.0,0.0,0.0,0.0,-9.9721703032316,-0.05154435424759456,0.48333333333333334
40,14833.94751,3.8243385,1,41,2,2,2,1,5,1,-28.36538462,n/a,n/a,12410350.0,12414176.0,0.0,0.0,0.0,12411859.0,12411183.0,12413176.0,12411183.0,12412376.0,12413183.0,12414176.0,3826.0,833.0,1193.0,993.0,1993.0,-12413183.0,0.0,0.0,0.0,0.0,0.0,1.0,0.0,-0.9034598883632762,9.792674422144472,-0.006923064278647363,-1.0384596417968683,12411838.0,12411898.0,60.0,414.79529980448575,10.745759949821094,10.763666887771942,0.09614280005917929,-538.0,0.10309263911051979,0.0,0.0,0.0,0.0,0.0,0.0,0.0,0.0,0.0,0.0,0.0,0.0,0.0,0.0,0.0,0.0
41,14837.78018,3.6663098,1,42,2,2,1,1,5,1,-28.36538462,n/a,n/a,12414182.0,12417850.0,0.0,0.0,0.0,12415459.0,12414859.0,12416851.0,12414859.0,12416050.0,12416857.0,12417850.0,3668.0,677.0,1191.0,993.0,1992.0,-12416857.0,0.0,0.0,0.0,0.0,0.0,1.0,0.0,-0.7996139241835893,7.618832238649687,-0.16615354268749735,0.031153789253905263,12415433.0,12415475.0,42.0,383.2864294944551,8.420758040684944,8.425559794104958,-0.02343320987946731,-617.0,-0.041095271224112766,0.0,0.0,0.0,0.0,0.0,0.0,0.0,0.0,0.0,0.0,0.0,0.0,0.0,0.0,0.0,0.0
42,14841.45465,3.5078268,1,43,2,1,1,2,2,2,-28.36538462,n/a,n/a,12417857.0,12421367.0,0.0,0.0,0.0,12418724.0,12418374.0,12420366.0,12418374.0,12418967.0,12420373.0,12421367.0,3510.0,517.0,593.0,994.0,1992.0,-12420373.0,0.0,0.0,0.0,0.0,0.0,1.0,0.0,-0.8480753741341092,-11.51651742752727,0.04153838567187631,1.0730749631900973,12418712.0,12418780.0,68.0,504.0714008761824,10.718195909637299,10.962064013660218,-3.0452018349792507,-255.0,-3.038467721265023,0.0,0.0,0.0,0.0,0.0,0.0,0.0,0.0,0.0,0.0,0.0,0.0,0.0,0.0,0.0,0.0
43,14844.97081,3.9827731,1,44,2,1,2,2,4,2,-28.36538462,n/a,n/a,12421373.0,12425358.0,0.0,0.0,0.0,12422749.0,12422366.0,12424357.0,12422366.0,12423358.0,12424364.0,12425358.0,3985.0,993.0,992.0,994.0,1991.0,-12424364.0,0.0,1.0,0.0,0.0,0.0,0.0,0.0,0.0,0.0,0.0,0.0,0.0,0.0,0.0,0.0,0.0,0.0,0.0,0.0,0.0,0.0,0.0,0.0,0.0,0.0,0.0,0.0,0.0,0.0,0.0,0.0,0.0,0.0,0.0,0.0,0.0
44,14848.96187,3.5078245,1,45,2,1,1,2,5,1,-28.36538462,n/a,n/a,12425364.0,12428873.0,0.0,0.0,0.0,12427331.0,12425881.0,12427873.0,12425881.0,12427074.0,12427880.0,12428873.0,3509.0,517.0,1193.0,993.0,1992.0,-12427880.0,0.0,0.0,0.0,1.0,0.0,0.0,0.0,-0.9449982740351486,-9.865366597070249,-0.4465376459726526,-0.9692289990104104,12427309.0,12427378.0,69.0,385.957815246046,8.935668820471609,9.016483938901457,3.0830643103969892,235.0,3.0643496475795327,1.0,-0.9449982740351486,-9.865366597070249,-0.4465376459726526,-0.9692289990104104,12427309.0,12427378.0,69.0,385.957815246046,8.935668820471609,9.016483938901457,3.0830643103969892,3.0643496475795327,-9.590505890407865,-0.7584383553574634,0.7125
45,14852.47804,3.9994314,1,46,2,2,2,2,2,2,-28.36538462,n/a,n/a,12428880.0,12432881.0,0.0,0.0,0.0,12430713.0,12429890.0,12431881.0,12429891.0,12430480.0,12431888.0,12432881.0,4001.0,1011.0,589.0,993.0,1991.0,-12431888.0,0.0,0.0,0.0,1.0,0.0,0.0,0.0,-1.0003827882643157,9.439598143933534,-0.21115346049869735,-0.6888448957252552,12430692.0,12430756.0,64.0,409.3500607321462,10.450903835168683,10.502350690317769,0.04572407652485265,212.0,0.06299447966241796,0.0,0.0,0.0,0.0,0.0,0.0,0.0,0.0,0.0,0.0,0.0,0.0,0.0,10.18685653544495,-0.3460835213767069,0.4
46,14856.48579,3.8078038,1,47,2,2,1,2,5,1,-28.36538462,n/a,n/a,12432888.0,12436697.0,0.0,0.0,0.0,12435114.0,12433705.0,12435698.0,12433705.0,12434898.0,12435704.0,12436697.0,3809.0,817.0,1193.0,993.0,1993.0,-12435704.0,0.0,0.0,0.0,1.0,0.0,0.0,0.0,-1.0142289168216065,9.335752179753849,-0.328845553235675,-1.540381801998688,12435091.0,12435151.0,60.0,423.5397504068584,10.420649153557372,10.422675570758464,0.11652655949776657,193.0,0.11817587648619952,0.0,0.0,0.0,0.0,0.0,0.0,0.0,0.0,0.0,0.0,0.0,0.0,0.0,10.369737399922997,-0.6848035635751843,0.6916666666666667
47,14860.30192,3.8577702,1,48,2,2,1,1,1,1,-28.36538462,n/a,n/a,12436704.0,12440563.0,0.0,0.0,0.0,12438920.0,12437571.0,12439564.0,12437571.0,12437964.0,12439570.0,12440564.0,3859.0,867.0,393.0,994.0,1993.0,-12439570.0,0.0,0.0,0.0,0.0,0.0,0.0,1.0,-0.8549984384127565,9.342675244032495,-0.28038410328515523,-1.5196126091627498,12438899.0,12438941.0,42.0,487.4154658209483,10.272693698510441,10.45063095906088,0.12092777399394132,935.0,0.13889912466858376,0.0,0.0,0.0,0.0,0.0,0.0,0.0,0.0,0.0,0.0,0.0,0.0,0.0,0.0,0.0,0.0
48,14864.16803,3.9994176,1,49,2,2,2,1,4,1,-28.36538462,n/a,n/a,12440570.0,12444571.0,0.0,0.0,0.0,12442320.0,12441580.0,12443571.0,12441580.0,12442571.0,12443578.0,12444571.0,4001.0,1010.0,991.0,993.0,1991.0,-12443578.0,0.0,1.0,0.0,0.0,0.0,0.0,0.0,0.0,0.0,0.0,0.0,0.0,0.0,0.0,0.0,0.0,0.0,0.0,0.0,0.0,0.0,0.0,0.0,0.0,0.0,0.0,0.0,0.0,0.0,0.0,0.0,0.0,0.0,0.0,0.0,0.0
49,14868.17578,3.9994725,1,50,2,1,1,1,2,1,-28.36538462,n/a,n/a,12444578.0,12448578.0,0.0,0.0,0.0,12445904.0,12445588.0,12447579.0,12445588.0,12446180.0,12447586.0,12448578.0,4000.0,1010.0,592.0,992.0,1991.0,-12447586.0,0.0,1.0,0.0,0.0,0.0,0.0,0.0,0.0,0.0,0.0,0.0,0.0,0.0,0.0,0.0,0.0,0.0,0.0,0.0,0.0,0.0,0.0,0.0,0.0,0.0,0.0,0.0,0.0,0.0,0.0,0.0,0.0,0.0,0.0,0.0,0.0
50,14872.18355,3.9994284,1,51,2,1,2,2,1,2,-28.36538462,n/a,n/a,12448586.0,12452586.0,0.0,0.0,0.0,12449952.0,12449595.0,12451587.0,12449595.0,12449987.0,12451593.0,12452587.0,4000.0,1009.0,392.0,994.0,1992.0,-12451593.0,0.0,0.0,0.0,1.0,0.0,0.0,0.0,-1.0211519811002538,-9.595367090203064,-0.02769225711458158,-0.7303832813971315,12449934.0,12450003.0,69.0,417.4001931993625,8.602961083997428,8.742661187767295,3.059821421178381,-53.0,3.0587473477769542,0.0,0.0,0.0,0.0,0.0,0.0,0.0,0.0,0.0,0.0,0.0,0.0,0.0,-9.375819658194512,-1.1560662309817609,0.17083333333333334
51,14876.19131,3.8494571,1,52,2,1,2,1,2,1,-28.36538462,n/a,n/a,12452593.0,12456445.0,0.0,0.0,0.0,12453836.0,12453453.0,12455444.0,12453453.0,12454045.0,12455451.0,12456445.0,3852.0,860.0,592.0,994.0,1991.0,-12455451.0,0.0,0.0,0.0,0.0,0.0,1.0,0.0,-0.882690695527338,-10.664980521253838,-0.14538434985156315,-0.9242290811992143,12453819.0,12453880.0,61.0,437.3205933818099,9.813245811150367,9.788851185038755,3.062142414694745,-226.0,-3.05378212637434,0.0,0.0,0.0,0.0,0.0,0.0,0.0,0.0,0.0,0.0,0.0,0.0,0.0,0.0,0.0,0.0
52,14880.04921,3.9993568,1,53,2,1,1,1,2,2,-28.36538462,n/a,n/a,12456451.0,12460452.0,0.0,0.0,0.0,12457794.0,12457461.0,12459452.0,12457461.0,12458053.0,12459459.0,12460452.0,4001.0,1010.0,592.0,993.0,1991.0,-12459459.0,0.0,0.0,0.0,0.0,0.0,1.0,0.0,-1.0003827882643157,-11.031902928022067,-0.08999983562239604,0.6923064278645789,12457764.0,12457819.0,55.0,381.3733859852501,10.061977907163994,10.050196580430358,-3.0637653537409077,-289.0,-3.0491553508171543,0.0,0.0,0.0,0.0,0.0,0.0,0.0,0.0,0.0,0.0,0.0,0.0,0.0,0.0,0.0,0.0
53,14884.05698,3.866275355,1,54,2,2,1,2,4,1,-28.36538462,n/a,n/a,12460459.0,12464327.0,0.0,0.0,0.0,12461992.0,12461335.0,12463326.0,12461335.0,12462327.0,12463333.0,12464327.0,3868.0,876.0,992.0,994.0,1991.0,-12463333.0,0.0,0.0,0.0,0.0,0.0,1.0,0.0,-0.951921338313796,7.944216259746042,0.19384579980208289,-0.33576861751432235,12461973.0,12462016.0,43.0,345.7009962901896,8.911888441550605,8.920123849817248,0.059462891001056895,-354.0,0.08781409507273706,0.0,0.0,0.0,0.0,0.0,0.0,0.0,0.0,0.0,0.0,0.0,0.0,0.0,0.0,0.0,0.0
54,14887.93138,3.8578729,1,55,2,2,2,2,1,2,-28.36538462,n/a,n/a,12464333.0,12468193.0,0.0,0.0,0.0,12465943.0,12465200.0,12467192.0,12465200.0,12465593.0,12467200.0,12468193.0,3860.0,867.0,393.0,993.0,1992.0,-12467200.0,0.0,0.0,0.0,1.0,0.0,0.0,0.0,-1.0246135132395775,6.988833389292927,-0.08307677134374868,-0.6715372350286407,12465915.0,12465969.0,54.0,319.03840046981816,8.035024391812884,8.176420285957457,0.0733025511498893,322.0,-0.09242301300889354,1.0,10.89690317458847,10.900364706727798,0.3807685353255184,0.4742299030872381,12466334.0,12466355.0,21.0,17.968134300769535,0.09352544824080247,0.13085324065527232,-1.5337762109209168,-2.224879051209247,10.266369954783228,-0.4933531049412611,0.35833333333333334
55,14891.79748,3.8912255,1,56,2,1,1,2,4,2,-28.36538462,n/a,n/a,12468199.0,12472092.0,0.0,0.0,0.0,12469549.0,12469099.0,12471092.0,12469099.0,12470092.0,12471099.0,12472092.0,3893.0,900.0,993.0,993.0,1993.0,-12471099.0,0.0,0.0,0.0,0.0,0.0,1.0,0.0,-1.0523057703541592,-10.959210753096285,-0.30461482826041314,0.7996139241835893,12469538.0,12469591.0,53.0,402.9035228748663,9.9682539832613,9.950072226792802,-3.030590300704326,-554.0,-3.0251342757787825,0.0,0.0,0.0,0.0,0.0,0.0,0.0,0.0,0.0,0.0,0.0,0.0,0.0,0.0,0.0,0.0
56,14895.69693,3.5161544,1,57,2,2,1,1,1,1,-28.36538462,n/a,n/a,12472099.0,12475616.0,0.0,0.0,0.0,12473415.0,12472626.0,12474617.0,12472626.0,12473015.0,12474624.0,12475616.0,3517.0,527.0,389.0,992.0,1991.0,-12474624.0,0.0,0.0,0.0,1.0,0.0,0.0,0.0,-1.0384596417968683,8.909983726617133,-0.29076869970312236,-0.4292299852760381,12473393.0,12473460.0,67.0,435.36670416083297,9.949406865845976,10.118387064373154,0.013916985919749486,378.0,0.02737167012777432,1.0,2.298457340510405,2.1669191192161326,-0.10730749631901051,-0.1626920105481776,12475217.0,12475242.0,25.0,26.594791207361702,0.14272262636898808,0.1430999228526165,2.7430702079233744,2.580429241301455,9.781338096819734,0.404991354802527,0.38333333333333336
57,14899.22143,3.9994301,1,58,2,1,2,1,1,1,-28.36538462,n/a,n/a,12475623.0,12479624.0,0.0,0.0,0.0,12477256.0,12476633.0,12478625.0,12476633.0,12477023.0,12478631.0,12479625.0,4001.0,1010.0,390.0,994.0,1992.0,-12478631.0,0.0,1.0,0.0,0.0,0.0,0.0,0.0,0.0,0.0,0.0,0.0,0.0,0.0,0.0,0.0,0.0,0.0,0.0,0.0,0.0,0.0,0.0,0.0,0.0,0.0,0.0,0.0,0.0,0.0,0.0,0.0,0.0,0.0,0.0,0.0,0.0
58,14903.22919,3.8328001,1,59,2,1,1,1,2,1,-28.36538462,n/a,n/a,12479631.0,12483466.0,0.0,0.0,0.0,12481174.0,12480474.0,12482466.0,12480474.0,12481064.0,12482472.0,12483466.0,3835.0,843.0,590.0,994.0,1992.0,-12482472.0,0.0,0.0,0.0,1.0,0.0,0.0,0.0,-0.9623059347317631,-11.035364460161386,-0.35653781035025656,0.7165371528398408,12481161.0,12481216.0,55.0,482.55863148426073,10.130054192024632,10.200832164514106,-3.0354637033513456,97.0,-3.025276883104881,0.0,0.0,0.0,0.0,0.0,0.0,0.0,0.0,0.0,0.0,0.0,0.0,0.0,-10.29817532251854,0.5522609383670851,0.3416666666666667
59,14907.07031,3.9994382,1,60,2,1,1,1,4,1,-28.36538462,n/a,n/a,12483472.0,12487474.0,0.0,0.0,0.0,12485532.0,12484482.0,12486473.0,12484482.0,12485472.0,12486480.0,12487474.0,4002.0,1010.0,990.0,994.0,1991.0,-12486480.0,0.0,0.0,0.0,1.0,0.0,0.0,0.0,-1.0834595596080643,-11.125364295783783,-0.1869227355234355,0.10730749631901051,12485520.0,12485579.0,59.0,414.2304144283949,10.046214319820097,10.055752652098844,-3.1123007927701263,48.0,-3.0961381124450806,0.0,0.0,0.0,0.0,0.0,0.0,0.0,0.0,0.0,0.0,0.0,0.0,0.0,-9.956267619363944,-0.08099827096050462,0.5208333333333334
60,14911.07807,3.8744883,1,61,2,2,1,2,4,1,-28.36538462,n/a,n/a,12487480.0,12491356.0,0.0,0.0,0.0,12488863.0,12488363.0,12490356.0,12488363.0,12489357.0,12490363.0,12491356.0,3876.0,883.0,994.0,993.0,1993.0,-12490363.0,0.0,0.0,0.0,0.0,0.0,1.0,0.0,-1.211536248763013,7.85421642412365,-0.3530762782109368,-0.15923047840885393,12488832.0,12488875.0,43.0,400.4395773244987,9.067824861567,9.062659367300217,-0.021378949203232134,-525.0,-0.04011608121447953,0.0,0.0,0.0,0.0,0.0,0.0,0.0,0.0,0.0,0.0,0.0,0.0,0.0,0.0,0.0,0.0
61,14914.96088,3.9994196,1,62,2,2,1,2,4,1,-28.36538462,n/a,n/a,12491363.0,12495364.0,0.0,0.0,0.0,12492829.0,12492372.0,12494364.0,12492372.0,12493364.0,12494371.0,12495364.0,4001.0,1009.0,992.0,993.0,1992.0,-12494371.0,0.0,0.0,0.0,0.0,0.0,1.0,0.0,-1.1042287524440024,8.45306148422651,-0.13153822129426843,0.11769209273697762,12492806.0,12492857.0,51.0,410.56748098823175,9.560539337160305,9.567554605457051,-0.026071599341430385,-558.0,3.08802077355921,0.0,0.0,0.0,0.0,0.0,0.0,0.0,0.0,0.0,0.0,0.0,0.0,0.0,0.0,0.0,0.0
62,14918.96863,3.8744251,1,63,2,1,2,2,4,1,-28.36538462,n/a,n/a,12495370.0,12499246.0,0.0,0.0,0.0,12496697.0,12496254.0,12498246.0,12496254.0,12497247.0,12498253.0,12499246.0,3876.0,884.0,993.0,993.0,1992.0,-12498253.0,0.0,0.0,0.0,0.0,0.0,1.0,0.0,-0.8446138419947854,-9.993443286225197,-0.04153838567187631,-0.543460545873696,12496676.0,12496724.0,48.0,431.8399116906966,9.162587301331378,9.391424406309039,3.0867856966736595,-571.0,3.0803694102288683,0.0,0.0,0.0,0.0,0.0,0.0,0.0,0.0,0.0,0.0,0.0,0.0,0.0,0.0,0.0,0.0
63,14948.59773,3.674485,1,64,2,1,1,1,5,1,-28.36538462,n/a,n/a,12524999.0,12528676.0,0.0,0.0,0.0,12525742.0,12525682.0,12527675.0,12525683.0,12526875.0,12527682.0,12528676.0,3677.0,684.0,1192.0,994.0,1993.0,-12527682.0,0.0,1.0,0.0,0.0,0.0,0.0,0.0,0.0,0.0,0.0,0.0,0.0,0.0,0.0,0.0,0.0,0.0,0.0,0.0,0.0,0.0,0.0,0.0,0.0,0.0,0.0,0.0,0.0,0.0,0.0,0.0,0.0,0.0,0.0,0.0,0.0
64,14952.28056,3.507863,1,65,2,1,2,1,4,2,-28.36538462,n/a,n/a,12528682.0,12532192.0,0.0,0.0,0.0,12529642.0,12529199.0,12531191.0,12529199.0,12530192.0,12531198.0,12532192.0,3510.0,517.0,993.0,994.0,1992.0,-12531198.0,0.0,0.0,0.0,0.0,0.0,1.0,0.0,-0.4846144995052052,-9.799597486423115,-0.3011532961210934,-0.39807619602213284,12529620.0,12529688.0,68.0,398.3461708701847,9.315487217268634,9.436440094141135,3.1311879751836487,-572.0,-3.113343289836146,0.0,0.0,0.0,0.0,0.0,0.0,0.0,0.0,0.0,0.0,0.0,0.0,0.0,0.0,0.0,0.0
65,14955.79671,3.7911183,1,66,2,2,1,2,3,1,-28.36538462,n/a,n/a,12532198.0,12535991.0,0.0,0.0,0.0,12533424.0,12532998.0,12534992.0,12532998.0,12533791.0,12534998.0,12535991.0,3793.0,800.0,793.0,993.0,1994.0,-12534998.0,0.0,0.0,0.0,0.0,0.0,1.0,0.0,-0.19730733194140657,8.619215026914008,0.044999917811196055,0.588460463684892,12533403.0,12533449.0,46.0,369.54231204641684,8.83325624382757,8.97843836018145,-0.06156325274791298,-388.0,-0.06674768317481329,0.0,0.0,0.0,0.0,0.0,0.0,0.0,0.0,0.0,0.0,0.0,0.0,0.0,0.0,0.0,0.0
66,14959.59618,3.8911032,1,67,2,1,1,1,3,1,-28.36538462,n/a,n/a,12535998.0,12539890.0,0.0,0.0,0.0,12538541.0,12536898.0,12538891.0,12536898.0,12537690.0,12538897.0,12539890.0,3892.0,900.0,792.0,993.0,1993.0,-12538897.0,0.0,0.0,0.0,0.0,0.0,0.0,1.0,0.044999917811196055,-8.660753412585883,-0.5088452244804671,-1.0003827882643157,12538521.0,12538583.0,62.0,372.11872999281394,8.719618697301529,8.759343298859463,3.0851913035264094,831.0,3.0700036335004017,0.0,0.0,0.0,0.0,0.0,0.0,0.0,0.0,0.0,0.0,0.0,0.0,0.0,0.0,0.0,0.0
67,14963.49561,3.7827882,1,68,2,1,2,1,1,2,-28.36538462,n/a,n/a,12539897.0,12543681.0,0.0,0.0,0.0,12541147.0,12540690.0,12542682.0,12540690.0,12541080.0,12542688.0,12543681.0,3784.0,793.0,390.0,993.0,1992.0,-12542688.0,0.0,0.0,0.0,1.0,0.0,0.0,0.0,-0.27346103900650787,-8.723060991093694,-0.1384612855729158,-0.18346120338411182,12541130.0,12541169.0,39.0,377.39388434427644,8.449719778958045,8.455874042745235,3.1362670177454484,50.0,3.1157998490295,0.0,0.0,0.0,0.0,0.0,0.0,0.0,0.0,0.0,0.0,0.0,0.0,0.0,-9.471235761400447,-0.9793427307042967,0.22083333333333333
68,14967.28674,3.9994233,1,69,2,2,2,2,2,2,-28.36538462,n/a,n/a,12543688.0,12547689.0,0.0,0.0,0.0,12545138.0,12544698.0,12546689.0,12544698.0,12545289.0,12546696.0,12547690.0,4001.0,1010.0,591.0,994.0,1991.0,-12546696.0,0.0,1.0,0.0,0.0,0.0,0.0,0.0,0.0,0.0,0.0,0.0,0.0,0.0,0.0,0.0,0.0,0.0,0.0,0.0,0.0,0.0,0.0,0.0,0.0,0.0,0.0,0.0,0.0,0.0,0.0,0.0,0.0,0.0,0.0,0.0,0.0
69,14971.29449,3.999479,1,70,2,1,2,2,5,1,-28.36538462,n/a,n/a,12547696.0,12551696.0,0.0,0.0,0.0,12549056.0,12548706.0,12550697.0,12548706.0,12549897.0,12550704.0,12551696.0,4000.0,1010.0,1191.0,992.0,1991.0,-12550704.0,0.0,1.0,0.0,0.0,0.0,0.0,0.0,0.0,0.0,0.0,0.0,0.0,0.0,0.0,0.0,0.0,0.0,0.0,0.0,0.0,0.0,0.0,0.0,0.0,0.0,0.0,0.0,0.0,0.0,0.0,0.0,0.0,0.0,0.0,0.0,0.0
70,14975.30226,3.899461,1,71,2,2,2,1,1,2,-28.36538462,n/a,n/a,12551704.0,12555605.0,0.0,0.0,0.0,12553280.0,12552613.0,12554605.0,12552613.0,12553003.0,12554612.0,12555605.0,3901.0,909.0,390.0,993.0,1992.0,-12554612.0,0.0,0.0,0.0,1.0,0.0,0.0,0.0,-0.917306016920567,10.502288510705664,-0.031153789253905263,-0.9865366597070249,12553261.0,12553306.0,45.0,507.1275850218735,11.459489325643888,11.58351135507829,0.08346734064669843,258.0,0.10478308901518692,0.0,0.0,0.0,0.0,0.0,0.0,0.0,0.0,0.0,0.0,0.0,0.0,0.0,10.329980690253853,-0.6111687717929053,0.325
71,14979.2101,3.8160767,1,72,2,1,1,1,4,1,-28.36538462,n/a,n/a,12555611.0,12559429.0,0.0,0.0,0.0,12558104.0,12556438.0,12558429.0,12556438.0,12557428.0,12558436.0,12559429.0,3818.0,827.0,990.0,993.0,1991.0,-12558436.0,0.0,0.0,0.0,1.0,0.0,0.0,0.0,-0.2596149104492171,-9.148829444230408,-0.3946146638828092,-0.7788447313476512,12558085.0,12558131.0,46.0,394.61466388280917,8.897514696381839,9.289375414184091,3.0983952436174214,657.0,-3.0897734140751614,0.0,0.0,0.0,0.0,0.0,0.0,0.0,0.0,0.0,0.0,0.0,0.0,0.0,-9.375819658194512,-1.1560662309817609,0.825
72,14983.03452,3.9994225,1,73,2,1,2,2,4,2,-28.36538462,n/a,n/a,12559436.0,12563437.0,0.0,0.0,0.0,12561012.0,12560445.0,12562437.0,12560445.0,12561437.0,12562444.0,12563437.0,4001.0,1009.0,992.0,993.0,1992.0,-12562444.0,0.0,0.0,0.0,0.0,0.0,1.0,0.0,-0.578075867266925,-8.449599952087185,-0.15923047840885393,0.05192298208984342,12560999.0,12561042.0,43.0,379.54498077380634,7.8743556689919725,8.02770126954048,-3.114774107035208,-438.0,-0.031051276164967296,0.0,0.0,0.0,0.0,0.0,0.0,0.0,0.0,0.0,0.0,0.0,0.0,0.0,0.0,0.0,0.0
73,14987.04232,3.7411605,1,74,2,1,2,1,3,2,-28.36538462,n/a,n/a,12563444.0,12567186.0,0.0,0.0,0.0,12564643.0,12564193.0,12566186.0,12564194.0,12564987.0,12566193.0,12567186.0,3742.0,750.0,793.0,993.0,1993.0,-12566193.0,0.0,0.0,0.0,0.0,0.0,1.0,0.0,-0.5815373994062447,-9.415367418958272,0.0692306427864579,-0.33230708537499865,12564626.0,12564682.0,56.0,404.4721266285409,8.842951168104213,8.862634359301694,3.096169374168216,-361.0,3.099007000674435,0.0,0.0,0.0,0.0,0.0,0.0,0.0,0.0,0.0,0.0,0.0,0.0,0.0,0.0,0.0,0.0
74,14990.79181,3.7660906,1,75,2,1,2,1,4,1,-28.36538462,n/a,n/a,12567193.0,12570961.0,0.0,0.0,0.0,12569160.0,12567970.0,12569961.0,12567970.0,12568960.0,12569968.0,12570961.0,3768.0,777.0,990.0,993.0,1991.0,-12569968.0,0.0,0.0,0.0,1.0,0.0,0.0,0.0,-0.49153756378385255,-11.284594774192636,0.12461515701562499,0.623075785078121,12569147.0,12569217.0,70.0,423.16434030972874,10.804561395303628,11.000324880502706,-3.0954419957687107,187.0,-3.0861814236100447,0.0,0.0,0.0,0.0,0.0,0.0,0.0,0.0,0.0,0.0,0.0,0.0,0.0,-10.170953851577297,0.3166296046637929,0.5875
75,14994.56641,3.9994028,1,76,2,2,1,2,1,1,-28.36538462,n/a,n/a,12570968.0,12574969.0,0.0,0.0,0.0,12572384.0,12571978.0,12573969.0,12571978.0,12572367.0,12573975.0,12574969.0,4001.0,1010.0,389.0,994.0,1991.0,-12573975.0,0.0,1.0,0.0,0.0,0.0,0.0,0.0,0.0,0.0,0.0,0.0,0.0,0.0,0.0,0.0,0.0,0.0,0.0,0.0,0.0,0.0,0.0,0.0,0.0,0.0,0.0,0.0,0.0,0.0,0.0,0.0,0.0,0.0,0.0,0.0,0.0
76,14998.5825,3.7826623,1,77,2,1,1,2,5,2,-28.36538462,n/a,n/a,12574985.0,12578768.0,0.0,0.0,0.0,12576158.0,12575775.0,12577768.0,12575775.0,12576968.0,12577775.0,12578768.0,3783.0,790.0,1193.0,993.0,1993.0,-12577775.0,0.0,0.0,0.0,0.0,0.0,1.0,0.0,-0.6438449779140591,-10.945364624538994,0.14538434985156315,1.2184593130416583,12576141.0,12576190.0,49.0,423.3385248191054,10.357258175136165,10.384801800177966,-3.0378003131327507,-827.0,-3.038076590563524,0.0,0.0,0.0,0.0,0.0,0.0,0.0,0.0,0.0,0.0,0.0,0.0,0.0,0.0,0.0,0.0
77,15002.3735,3.8244614,1,78,2,1,2,2,5,1,-28.36538462,n/a,n/a,12578775.0,12582600.0,0.0,0.0,0.0,12580001.0,12579608.0,12581601.0,12579608.0,12580801.0,12581608.0,12582601.0,3825.0,833.0,1193.0,993.0,1993.0,-12581608.0,0.0,0.0,0.0,0.0,0.0,1.0,0.0,-0.6403834457747355,-9.100367994279889,0.1626920105481776,-0.3634608746289039,12579985.0,12580038.0,53.0,337.827133114631,8.476330303824062,8.474414649086352,3.079479529339358,-816.0,3.076600404170711,0.0,0.0,0.0,0.0,0.0,0.0,0.0,0.0,0.0,0.0,0.0,0.0,0.0,0.0,0.0,0.0
78,15006.20644,3.6160147,1,79,2,1,2,1,2,2,-28.36538462,n/a,n/a,12582608.0,12586225.0,0.0,0.0,0.0,12584051.0,12583234.0,12585225.0,12583234.0,12583824.0,12585232.0,12586225.0,3617.0,626.0,590.0,993.0,1991.0,-12585232.0,0.0,0.0,0.0,1.0,0.0,0.0,0.0,-0.7892293277656184,-9.938058771996031,-0.062307578507810525,0.21807652477734077,12584032.0,12584081.0,49.0,357.1375661985226,9.153124900545844,9.137194546032637,-3.1109552510728617,208.0,-3.1063532674759697,1.0,-9.913828047020768,-9.893058854184831,0.22153805691666445,0.23538418547395523,12584086.0,12584105.0,19.0,21.55558565996321,0.024961463239990725,0.1324912448467551,-0.5880026035475239,-0.9900399732272115,-9.813143464555043,-0.3460835213767069,0.4
79,15009.83079,3.8494377,1,80,2,1,2,2,1,2,-28.36538462,n/a,n/a,12586232.0,12590083.0,0.0,0.0,0.0,12587742.0,12587091.0,12589083.0,12587091.0,12587482.0,12589090.0,12590083.0,3851.0,859.0,391.0,993.0,1992.0,-12589090.0,0.0,0.0,0.0,1.0,0.0,0.0,0.0,-0.6715372350286407,-8.823445423134057,-0.03807685353255263,0.03461532139322895,12587722.0,12587771.0,49.0,292.0046238815785,8.152232286901274,8.154917916077546,-3.132675692480799,240.0,3.114423120125143,0.0,0.0,0.0,0.0,0.0,0.0,0.0,0.0,0.0,0.0,0.0,0.0,0.0,-9.654116625878487,-0.6406226885058153,0.31666666666666665
80,15013.68857,3.9994306,1,81,2,1,1,2,4,2,-28.36538462,n/a,n/a,12590090.0,12594091.0,0.0,0.0,0.0,12592216.0,12591099.0,12593090.0,12591099.0,12592089.0,12593098.0,12594091.0,4001.0,1009.0,990.0,993.0,1991.0,-12593098.0,0.0,1.0,0.0,0.0,0.0,0.0,0.0,0.0,0.0,0.0,0.0,0.0,0.0,0.0,0.0,0.0,0.0,0.0,0.0,0.0,0.0,0.0,0.0,0.0,0.0,0.0,0.0,0.0,0.0,0.0,0.0,0.0,0.0,0.0,0.0,0.0
81,15017.69634,3.8577873,1,82,2,1,1,2,3,2,-28.36538462,n/a,n/a,12594097.0,12597957.0,0.0,0.0,0.0,12595457.0,12594964.0,12596957.0,12594964.0,12595757.0,12596964.0,12597957.0,3860.0,867.0,793.0,993.0,1993.0,-12596964.0,0.0,0.0,0.0,0.0,0.0,1.0,0.0,-0.6299988493567683,-10.720365035483006,-0.17999967124479208,0.792690859904942,12595437.0,12595481.0,44.0,405.09006192178015,10.137140456731775,10.191151555408426,-3.0454916527079816,-320.0,-0.10788153437880468,0.0,0.0,0.0,0.0,0.0,0.0,0.0,0.0,0.0,0.0,0.0,0.0,0.0,0.0,0.0,0.0
82,15021.56244,3.9244392,1,83,2,2,2,1,5,2,-28.36538462,n/a,n/a,12597964.0,12601889.0,0.0,0.0,0.0,12599380.0,12598897.0,12600890.0,12598897.0,12600090.0,12600896.0,12601889.0,3925.0,933.0,1193.0,993.0,1993.0,-12600896.0,0.0,0.0,0.0,0.0,0.0,1.0,0.0,-0.758075538511713,10.651134392696548,0.01384612855729079,-0.5330759494557249,12599357.0,12599419.0,62.0,456.72406457719876,11.42231128160143,11.441460779787759,0.047900224954593236,-733.0,0.0751012041291783,0.0,0.0,0.0,0.0,0.0,0.0,0.0,0.0,0.0,0.0,0.0,0.0,0.0,0.0,0.0,0.0
83,15025.49519,3.5078922,1,84,2,2,2,2,3,2,-28.36538462,n/a,n/a,12601896.0,12605405.0,0.0,0.0,0.0,12603439.0,12602413.0,12604406.0,12602413.0,12603206.0,12604413.0,12605406.0,3509.0,517.0,793.0,993.0,1993.0,-12604413.0,0.0,0.0,0.0,1.0,0.0,0.0,0.0,-0.7649986027903605,9.54344410811322,0.15923047840885393,-0.1869227355234355,12603410.0,12603485.0,75.0,457.09849012808934,10.314252913880717,10.50926003176189,0.03356697082856367,204.0,-0.06295300895482014,1.0,-0.7649986027903605,9.54344410811322,0.15923047840885393,-0.1869227355234355,12603410.0,12603485.0,75.0,457.09849012808934,10.314252913880717,10.50926003176189,0.03356697082856367,-0.06295300895482014,9.996024329033087,0.007363479178229481,0.5
84,15029.01142,3.8744597,1,85,2,2,2,1,1,2,-28.36538462,n/a,n/a,12605412.0,12609289.0,0.0,0.0,0.0,12607289.0,12606296.0,12608289.0,12606296.0,12606689.0,12608295.0,12609289.0,3877.0,884.0,393.0,994.0,1993.0,-12608295.0,0.0,0.0,0.0,1.0,0.0,0.0,0.0,-0.3115378925390605,10.017674011200459,0.20769192835937367,0.3080763603997368,12607265.0,12607323.0,58.0,450.68282914936566,10.32969968520626,10.343498823767302,-0.00971819270866159,576.0,0.05256547238961812,0.0,0.0,0.0,0.0,0.0,0.0,0.0,0.0,0.0,0.0,0.0,0.0,0.0,10.027829696768393,-0.05154435424759456,0.48333333333333334
85,15032.89432,3.9242883,1,86,2,2,2,1,4,2,-28.36538462,n/a,n/a,12609295.0,12613222.0,0.0,0.0,0.0,12611978.0,12610228.0,12612221.0,12610228.0,12611222.0,12612228.0,12613222.0,3927.0,933.0,994.0,994.0,1993.0,-12612228.0,0.0,0.0,0.0,1.0,0.0,0.0,0.0,-0.39807619602213284,8.35613858432547,0.2284611211953118,1.0938441560260355,12611956.0,12612001.0,45.0,465.01668709666126,8.796883778783783,8.971917366391628,-0.09853317921251008,734.0,-0.09582960501253295,0.0,0.0,0.0,0.0,0.0,0.0,0.0,0.0,0.0,0.0,0.0,0.0,0.0,9.304257580790065,1.288608856189862,0.8625
86,15048.792,3.7661979,1,87,2,1,2,2,3,2,-28.36538462,n/a,n/a,12625193.0,12628961.0,0.0,0.0,0.0,12626502.0,12625969.0,12627960.0,12625969.0,12626761.0,12627967.0,12628961.0,3768.0,776.0,792.0,994.0,1991.0,-12627967.0,0.0,0.0,0.0,0.0,0.0,1.0,0.0,-0.44999917811197626,-9.650751604432228,0.05192298208984342,-0.10038443204036315,12626486.0,12626561.0,75.0,466.1658468082707,9.202012973194345,9.434666679456315,3.12504036556154,-275.0,3.1210450871072077,0.0,0.0,0.0,0.0,0.0,0.0,0.0,0.0,0.0,0.0,0.0,0.0,0.0,0.0,0.0,0.0
87,15052.56652,3.8827014,1,88,2,1,1,2,3,2,-28.36538462,n/a,n/a,12628968.0,12632852.0,0.0,0.0,0.0,12630900.0,12629861.0,12631852.0,12629861.0,12630650.0,12631859.0,12632852.0,3884.0,893.0,789.0,993.0,1991.0,-12631859.0,0.0,0.0,0.0,1.0,0.0,0.0,0.0,-0.5503836101523394,-10.090366186126237,-0.30461482826041314,-0.017307660696614473,12630881.0,12630933.0,52.0,451.75352147789766,9.544307882629264,9.73577067762268,-3.1114856432376756,231.0,3.098913958816977,0.0,0.0,0.0,0.0,0.0,0.0,0.0,0.0,0.0,0.0,0.0,0.0,0.0,-9.980121645165427,-0.03681739589113953,0.5083333333333333
88,15056.45754,3.8744527,1,89,2,1,1,1,3,1,-28.36538462,n/a,n/a,12632858.0,12636734.0,0.0,0.0,0.0,12635135.0,12633742.0,12635735.0,12633742.0,12634534.0,12635741.0,12636735.0,3876.0,884.0,792.0,994.0,1993.0,-12635741.0,0.0,0.0,0.0,1.0,0.0,0.0,0.0,-0.43269151741536177,-10.370750289411392,-0.1211536248763013,-0.4776914352265578,12635114.0,12635178.0,64.0,491.5026899126933,9.944452290893482,10.11817272170988,3.1057320321717663,580.0,3.1042939720828744,0.0,0.0,0.0,0.0,0.0,0.0,0.0,0.0,0.0,0.0,0.0,0.0,0.0,-9.63821394201083,-0.6700766052187292,0.6875
89,15060.34041,3.9993156,1,90,2,2,2,2,2,2,-28.36538462,n/a,n/a,12636741.0,12640742.0,0.0,0.0,0.0,12639501.0,12637751.0,12639742.0,12637751.0,12638341.0,12639749.0,12640743.0,4001.0,1010.0,590.0,994.0,1991.0,-12639749.0,0.0,0.0,0.0,0.0,0.0,0.0,1.0,-0.1349997534335921,9.027675819354107,0.1384612855729158,1.4123051128437414,12639482.0,12639528.0,46.0,471.5203848831985,9.250800059910299,9.474147699782012,-0.13813986214455137,1141.0,-0.14814923376895503,0.0,0.0,0.0,0.0,0.0,0.0,0.0,0.0,0.0,0.0,0.0,0.0,0.0,0.0,0.0,0.0
90,15064.34828,3.9993676,1,91,2,2,2,2,1,1,-28.36538462,n/a,n/a,12640749.0,12644750.0,0.0,0.0,0.0,12642659.0,12641759.0,12643750.0,12641759.0,12642149.0,12643757.0,12644750.0,4001.0,1010.0,390.0,993.0,1991.0,-12643757.0,0.0,0.0,0.0,0.0,0.0,0.0,1.0,1.6407662340390512,9.95536643269264,0.44999917811197626,-0.26307644258854074,12643123.0,12643173.0,50.0,410.99570227690793,8.345121527233006,8.562797867273204,0.0855525258716327,974.0,0.10530012956404823,0.0,0.0,0.0,0.0,0.0,0.0,0.0,0.0,0.0,0.0,0.0,0.0,0.0,0.0,0.0,0.0
91,15068.35585,3.87447,1,92,2,2,1,1,1,1,-28.36538462,n/a,n/a,12644757.0,12648632.0,0.0,0.0,0.0,12647056.0,12645640.0,12647633.0,12645640.0,12646033.0,12647640.0,12648632.0,3875.0,883.0,393.0,992.0,1993.0,-12647640.0,0.0,0.0,0.0,0.0,0.0,0.0,1.0,0.4707683709479144,10.505750042844985,-0.8342292455768183,-1.8242274374231668,12647036.0,12647084.0,48.0,471.7888975540725,10.083697415887148,10.586387392127603,0.098336504078471,1003.0,0.11239044685219587,0.0,0.0,0.0,0.0,0.0,0.0,0.0,0.0,0.0,0.0,0.0,0.0,0.0,0.0,0.0,0.0
92,15072.23865,3.7078131,1,93,2,1,2,2,2,1,-28.36538462,n/a,n/a,12648639.0,12652349.0,0.0,0.0,0.0,12650106.0,12649356.0,12651349.0,12649356.0,12649949.0,12651356.0,12652349.0,3710.0,717.0,593.0,993.0,1993.0,-12651356.0,0.0,0.0,0.0,1.0,0.0,0.0,0.0,-0.7892293277656184,-10.862287853195241,-0.373845471046871,-0.3946146638828092,12650089.0,12650153.0,64.0,425.2013159741632,10.073079936945872,10.161512579792968,3.139530800841503,140.0,-3.122174311016929,0.0,0.0,0.0,0.0,0.0,0.0,0.0,0.0,0.0,0.0,0.0,0.0,0.0,-9.749532729084422,-0.463899188228351,0.36666666666666664
93,15075.95479,3.8161299,1,94,2,1,2,2,4,2,-28.36538462,n/a,n/a,12652355.0,12656173.0,0.0,0.0,0.0,12654439.0,12653182.0,12655173.0,12653182.0,12654172.0,12655180.0,12656173.0,3818.0,827.0,990.0,993.0,1991.0,-12655180.0,0.0,0.0,0.0,1.0,0.0,0.0,0.0,-0.6611526386106736,-9.761520632890562,-0.017307660696614473,0.7719216670690039,12654427.0,12654477.0,50.0,390.5740792786249,9.134526838491368,9.155187783675943,-3.0550841131797104,255.0,-3.032104534179706,0.0,0.0,0.0,0.0,0.0,0.0,0.0,0.0,0.0,0.0,0.0,0.0,0.0,-10.234564587047918,0.434445271515441,0.6208333333333333
94,15079.77926,3.9994015,1,95,2,1,1,1,4,1,-28.36538462,n/a,n/a,12656180.0,12660181.0,0.0,0.0,0.0,12658480.0,12657189.0,12659181.0,12657189.0,12658180.0,12659188.0,12660181.0,4001.0,1009.0,991.0,993.0,1992.0,-12659188.0,0.0,1.0,0.0,0.0,0.0,0.0,0.0,0.0,0.0,0.0,0.0,0.0,0.0,0.0,0.0,0.0,0.0,0.0,0.0,0.0,0.0,0.0,0.0,0.0,0.0,0.0,0.0,0.0,0.0,0.0,0.0,0.0,0.0,0.0,0.0,0.0
95,15101.09289,3.6661461,1,96,2,2,1,2,1,2,-28.36538462,n/a,n/a,12677493.0,12681161.0,0.0,0.0,0.0,12678870.0,12678170.0,12680161.0,12678170.0,12678560.0,12680168.0,12681161.0,3668.0,677.0,390.0,993.0,1991.0,-12680168.0,0.0,0.0,0.0,1.0,0.0,0.0,0.0,-0.5399990137343723,10.124981507519466,-0.6265373172174447,-0.38769159960416577,12678842.0,12678904.0,62.0,523.1270468634004,10.667654699864729,10.80507041202636,-0.02239158318908701,282.0,0.05352598101494121,0.0,0.0,0.0,0.0,0.0,0.0,0.0,0.0,0.0,0.0,0.0,0.0,0.0,9.693873335547627,0.5669878967235402,0.3375
96,15104.76736,3.79115,1,97,2,2,1,2,4,2,-28.36538462,n/a,n/a,12681168.0,12684961.0,0.0,0.0,0.0,12683178.0,12681968.0,12683960.0,12681968.0,12682961.0,12683967.0,12684961.0,3793.0,800.0,993.0,994.0,1992.0,-12683967.0,0.0,0.0,0.0,1.0,0.0,0.0,0.0,-0.2596149104492171,9.062291140747336,-0.6542295743320262,-1.3880743878684814,12683160.0,12683259.0,99.0,452.3311492606254,9.350746528362816,10.088005774494395,0.07856059496391826,199.0,0.11520436679487056,0.0,0.0,0.0,0.0,0.0,0.0,0.0,0.0,0.0,0.0,0.0,0.0,0.0,10.18685653544495,-0.3460835213767069,0.5958333333333333
97,15108.56683,3.9578517,1,98,2,1,1,2,5,1,-28.36538462,n/a,n/a,12684967.0,12688927.0,0.0,0.0,0.0,12686410.0,12685934.0,12687926.0,12685934.0,12687127.0,12687934.0,12688927.0,3960.0,967.0,1193.0,993.0,1992.0,-12687934.0,0.0,0.0,0.0,0.0,0.0,1.0,0.0,-0.8134600527408802,-10.865749385334565,-0.3946146638828092,0.7096140885611933,12686397.0,12686466.0,69.0,377.9103481950825,10.112756397931319,10.246923302304934,-3.03218283301631,-730.0,-3.030562381623683,0.0,0.0,0.0,0.0,0.0,0.0,0.0,0.0,0.0,0.0,0.0,0.0,0.0,0.0,0.0,0.0
98,15112.53299,3.8827339,1,99,2,2,2,1,4,1,-28.36538462,n/a,n/a,12688934.0,12692818.0,0.0,0.0,0.0,12691093.0,12689827.0,12691817.0,12689827.0,12690816.0,12691825.0,12692818.0,3884.0,893.0,989.0,993.0,1990.0,-12691825.0,0.0,0.0,0.0,1.0,0.0,0.0,0.0,-0.5642297387096302,9.276906133385356,-0.07615370706510526,-0.15230741413020657,12691078.0,12691136.0,58.0,509.9249900138021,9.841430517975247,9.878480731219046,0.0077381501532943755,262.0,-0.051533280240677944,0.0,0.0,0.0,0.0,0.0,0.0,0.0,0.0,0.0,0.0,0.0,0.0,0.0,9.757484071018252,0.44917222987189603,0.625
99,15116.42404,3.9994396,1,100,2,1,1,1,2,1,-28.36538462,n/a,n/a,12692824.0,12696825.0,0.0,0.0,0.0,12694184.0,12693835.0,12695826.0,12693835.0,12694426.0,12695832.0,12696825.0,4001.0,1011.0,591.0,993.0,1991.0,-12695832.0,0.0,0.0,0.0,0.0,0.0,1.0,0.0,-0.8203831170195276,-11.104595102947844,-0.26307644258854074,0.9796135954283796,12694166.0,12694240.0,74.0,457.08865991601124,10.359019968225669,10.436230648026513,-3.0213409227884562,-260.0,-3.015550903741416,0.0,0.0,0.0,0.0,0.0,0.0,0.0,0.0,0.0,0.0,0.0,0.0,0.0,0.0,0.0,0.0
100,15262.64532,3.7660597,2,1,2,2,2,2,2,2,-28.36538462,n/a,n/a,12839047.0,12842812.0,0.0,0.0,0.0,12840638.0,12839811.0,12841813.0,12839811.0,12840412.0,12841819.0,12842813.0,3765.0,764.0,601.0,994.0,2002.0,-12841819.0,0.0,0.0,0.0,1.0,0.0,0.0,0.0,0.10384596417968683,10.502288510705664,0.1107690284583342,-0.15923047840885393,12840619.0,12840672.0,53.0,476.31857589397026,10.401947275732086,10.391178742901,0.02595954655901474,207.0,0.05098978623673132,0.0,0.0,0.0,0.0,0.0,0.0,0.0,0.0,0.0,0.0,0.0,0.0,0.0,10.178905193511127,-0.33135656302025185,0.4041666666666667
101,15266.41971,3.8244641,2,2,2,2,1,1,3,1,-28.36538462,n/a,n/a,12842819.0,12846645.0,0.0,0.0,0.0,12844652.0,12843653.0,12845646.0,12843653.0,12844445.0,12845652.0,12846645.0,3826.0,834.0,792.0,993.0,1993.0,-12845652.0,0.0,0.0,0.0,1.0,0.0,0.0,0.0,0.3634608746289039,10.561134557074148,0.031153789253905263,-0.713075620700517,12844628.0,12844693.0,65.0,433.73870984051916,10.224794665335702,10.286064338833478,0.07285115732883803,183.0,0.08423116494295452,0.0,0.0,0.0,0.0,0.0,0.0,0.0,0.0,0.0,0.0,0.0,0.0,0.0,9.980121645165427,0.03681739589113953,0.4875
102,15270.25252,3.8494493,2,3,2,1,1,1,3,1,-28.36538462,n/a,n/a,12846652.0,12850503.0,0.0,0.0,0.0,12848995.0,12847512.0,12849503.0,12847512.0,12848302.0,12849510.0,12850503.0,3851.0,860.0,790.0,993.0,1991.0,-12849510.0,0.0,0.0,0.0,1.0,0.0,0.0,0.0,0.5019221602018197,-8.435753823529895,-0.031153789253905263,-0.6680757028893171,12848978.0,12849016.0,38.0,423.17063264610164,8.960341595845755,8.90879887323818,3.070450332477999,676.0,3.069648475439281,0.0,0.0,0.0,0.0,0.0,0.0,0.0,0.0,0.0,0.0,0.0,0.0,0.0,-9.550749180738725,-0.8320731471397386,0.7333333333333333
103,15274.11029,3.7828029,2,4,2,2,2,2,4,1,-28.36538462,n/a,n/a,12850510.0,12854294.0,0.0,0.0,0.0,12852519.0,12851303.0,12853294.0,12851303.0,12852293.0,12853301.0,12854295.0,3784.0,793.0,990.0,994.0,1991.0,-12853301.0,0.0,0.0,0.0,1.0,0.0,0.0,0.0,0.11769209273697762,9.446521208212182,0.2769225711458316,0.12461515701562499,12852502.0,12852543.0,41.0,406.8102147185967,9.330072358462012,9.337318529619589,0.016325080201475748,209.0,-0.0426457425864506,0.0,0.0,0.0,0.0,0.0,0.0,0.0,0.0,0.0,0.0,0.0,0.0,0.0,9.805192122621218,0.36081047973316194,0.6
104,15277.90989,3.8659997,2,5,2,1,1,1,2,2,-28.36538462,n/a,n/a,12854312.0,12858177.0,0.0,0.0,0.0,12856127.0,12855184.0,12857177.0,12855185.0,12855778.0,12857184.0,12858178.0,3865.0,873.0,593.0,994.0,1993.0,-12857184.0,0.0,0.0,0.0,1.0,0.0,0.0,0.0,0.2284611211953118,-10.014212479061133,0.23538418547395523,-0.07269217492578157,12856104.0,12856151.0,47.0,397.2748055370126,10.247305671503483,10.271629874657142,3.1115239898446743,326.0,-3.1112580640123766,0.0,0.0,0.0,0.0,0.0,0.0,0.0,0.0,0.0,0.0,0.0,0.0,0.0,-10.075537748371362,0.13990610438632867,0.4583333333333333
105,15281.79255,3.7994829,2,6,2,2,2,1,3,2,-28.36538462,n/a,n/a,12858193.0,12861993.0,0.0,0.0,0.0,12859993.0,12859000.0,12860993.0,12859000.0,12859794.0,12861001.0,12861993.0,3800.0,807.0,794.0,992.0,1993.0,-12861001.0,0.0,0.0,0.0,1.0,0.0,0.0,0.0,-0.031153789253905263,9.321906051196553,0.2007688640807263,-0.22153805691666445,12859976.0,12860025.0,49.0,416.0835865917247,9.362588932264913,9.367113837718492,0.04512109362007755,182.0,-0.06693688625856037,1.0,-0.031153789253905263,9.321906051196553,0.2007688640807263,-0.22153805691666445,12859976.0,12860025.0,49.0,416.0835865917247,9.362588932264913,9.367113837718492,0.04512109362007755,-0.06693688625856037,10.019878354834571,-0.03681739589113953,0.4875
106,15285.60035,3.7994526,2,7,2,2,2,2,4,2,-28.36538462,n/a,n/a,12862000.0,12865801.0,0.0,0.0,0.0,12863743.0,12862809.0,12864800.0,12862809.0,12863801.0,12864807.0,12865801.0,3801.0,809.0,992.0,994.0,1991.0,-12864807.0,0.0,0.0,0.0,1.0,0.0,0.0,0.0,-0.10038443204036315,9.57805942950645,0.46384530666926704,-0.017307660696614473,12863717.0,12863760.0,43.0,424.65380035386056,9.69039647068778,9.684218787070783,0.04967298214757385,-84.0,0.06366741581308888,0.0,0.0,0.0,0.0,0.0,0.0,0.0,0.0,0.0,0.0,0.0,0.0,0.0,10.083489090305187,-0.15463306274278368,0.45416666666666666
107,15289.40821,3.8743987,2,8,2,1,2,2,1,1,-28.36538462,n/a,n/a,12865807.0,12869683.0,0.0,0.0,0.0,12867250.0,12866691.0,12868683.0,12866691.0,12867084.0,12868690.0,12869683.0,3876.0,884.0,393.0,993.0,1992.0,-12868690.0,0.0,0.0,0.0,1.0,0.0,0.0,0.0,-0.07269217492578157,-10.228827471699153,0.3946146638828092,-0.34961474607161314,12867238.0,12867288.0,50.0,445.12141941900774,10.183366907904626,10.212779965626579,3.068444596080273,154.0,3.0662765167247468,0.0,0.0,0.0,0.0,0.0,0.0,0.0,0.0,0.0,0.0,0.0,0.0,0.0,-9.574603206540209,-0.7878922720703735,0.275
108,15293.29094,3.7829396,2,9,2,1,2,2,5,2,-28.36538462,n/a,n/a,12869690.0,12873475.0,0.0,0.0,0.0,12871883.0,12870484.0,12872475.0,12870484.0,12871673.0,12872481.0,12873475.0,3785.0,794.0,1189.0,994.0,1991.0,-12872481.0,0.0,0.0,0.0,1.0,0.0,0.0,0.0,0.044999917811196055,-9.564213300949156,0.40153772816145655,1.1284594774192644,12871863.0,12871920.0,57.0,369.89520973510594,9.636669233357692,9.682969041686372,-3.0660880490954416,190.0,-3.059995180123492,0.0,0.0,0.0,0.0,0.0,0.0,0.0,0.0,0.0,0.0,0.0,0.0,0.0,-10.361786057989166,0.6700766052187292,0.6875
109,15297.08207,3.9244314,2,10,2,1,2,1,5,1,-28.36538462,n/a,n/a,12873481.0,12877407.0,0.0,0.0,0.0,12875164.0,12874414.0,12876408.0,12874414.0,12875607.0,12876414.0,12877408.0,3926.0,933.0,1193.0,994.0,1994.0,-12876414.0,0.0,0.0,0.0,0.0,0.0,1.0,0.0,-0.017307660696614473,-9.23536774771348,0.4049992603007802,0.13153822129426843,12875146.0,12875208.0,62.0,409.62479343848696,9.222115413922552,9.281545105680566,3.1119355610853923,-461.0,3.099810340297604,0.0,0.0,0.0,0.0,0.0,0.0,0.0,0.0,0.0,0.0,0.0,0.0,0.0,0.0,0.0,0.0
110,15301.01498,3.9992993,2,11,2,2,2,1,5,2,-28.36538462,n/a,n/a,12877414.0,12881415.0,0.0,0.0,0.0,12879880.0,12878423.0,12880415.0,12878423.0,12879614.0,12880422.0,12881415.0,4001.0,1009.0,1191.0,993.0,1992.0,-12880422.0,0.0,0.0,0.0,1.0,0.0,0.0,0.0,-0.1730766069661447,9.498444190302026,0.21115346049869735,0.7615370706510368,12879855.0,12879909.0,54.0,406.7337088347698,9.687168660156333,9.705166372109169,-0.056846346890520226,241.0,-0.06924912250009259,0.0,0.0,0.0,0.0,0.0,0.0,0.0,0.0,0.0,0.0,0.0,0.0,0.0,9.582554548474034,0.7731653137139184,0.7166666666666667
111,15305.02272,3.9993225,2,12,2,1,1,1,1,2,-28.36538462,n/a,n/a,12881422.0,12885423.0,0.0,0.0,0.0,12884088.0,12882431.0,12884422.0,12882431.0,12882821.0,12884430.0,12885423.0,4001.0,1009.0,390.0,993.0,1991.0,-12884430.0,0.0,1.0,0.0,0.0,0.0,0.0,0.0,0.0,0.0,0.0,0.0,0.0,0.0,0.0,0.0,0.0,0.0,0.0,0.0,0.0,0.0,0.0,0.0,0.0,0.0,0.0,0.0,0.0,0.0,0.0,0.0,0.0,0.0,0.0,0.0,0.0
112,15309.03038,3.9995059,2,13,2,1,1,1,5,1,-28.36538462,n/a,n/a,12885429.0,12889430.0,0.0,0.0,0.0,12888096.0,12886439.0,12888430.0,12886439.0,12887629.0,12888438.0,12889430.0,4001.0,1010.0,1190.0,992.0,1991.0,-12888438.0,0.0,0.0,0.0,1.0,0.0,0.0,0.0,0.1903842676627592,-8.234984959449164,-0.07615370706510526,-1.6615354268749893,12888078.0,12888130.0,52.0,298.7570518555687,8.573230535257519,8.573695234660008,2.9555998304258893,449.0,2.953144515113583,0.0,0.0,0.0,0.0,0.0,0.0,0.0,0.0,0.0,0.0,0.0,0.0,0.0,-9.383771000128343,-1.1413392726253058,0.8208333333333333
113,15313.03817,3.9994366,2,14,2,1,1,1,2,2,-28.36538462,n/a,n/a,12889437.0,12893438.0,0.0,0.0,0.0,12891887.0,12890447.0,12892439.0,12890447.0,12891037.0,12892445.0,12893438.0,4001.0,1010.0,590.0,993.0,1992.0,-12892445.0,0.0,0.0,0.0,0.0,0.0,0.0,1.0,0.1903842676627592,-9.841135872094988,0.0034615321393236813,-1.5888432519492077,12891865.0,12891929.0,64.0,394.13233558093236,10.157107405152143,10.310653879025367,2.9841757808632026,828.0,-2.9702071655533824,0.0,0.0,0.0,0.0,0.0,0.0,0.0,0.0,0.0,0.0,0.0,0.0,0.0,0.0,0.0,0.0
114,15317.04613,3.7992619,2,15,2,1,2,2,4,1,-28.36538462,n/a,n/a,12893445.0,12897246.0,0.0,0.0,0.0,12895638.0,12894255.0,12896247.0,12894255.0,12895245.0,12896253.0,12897247.0,3801.0,810.0,990.0,994.0,1992.0,-12896253.0,0.0,0.0,0.0,1.0,0.0,0.0,0.0,0.4223069209973947,-9.619597815178322,0.26307644258854074,0.9103829526419196,12895616.0,12895658.0,42.0,401.51866275691657,10.062745969584336,10.123670774184948,-3.0772211820840107,371.0,-3.069383827261475,0.0,0.0,0.0,0.0,0.0,0.0,0.0,0.0,0.0,0.0,0.0,0.0,0.0,-10.34588337412151,0.6406226885058153,0.6791666666666667
115,15320.85376,3.9995539,2,16,2,1,2,2,3,2,-28.36538462,n/a,n/a,12897253.0,12901254.0,0.0,0.0,0.0,12898752.0,12898263.0,12900254.0,12898263.0,12899054.0,12900261.0,12901255.0,4001.0,1010.0,791.0,994.0,1991.0,-12900261.0,0.0,0.0,0.0,0.0,1.0,0.0,0.0,0.0,0.0,0.0,0.0,0.0,0.0,0.0,0.0,0.0,0.0,0.0,0.0,0.0,0.0,0.0,0.0,0.0,0.0,0.0,0.0,0.0,0.0,0.0,0.0,0.0,0.0,0.0,0.0,0.0
116,15324.86165,3.7826576,2,17,2,1,1,2,4,2,-28.36538462,n/a,n/a,12901261.0,12905044.0,0.0,0.0,0.0,12903303.0,12902054.0,12904045.0,12902054.0,12903043.0,12904052.0,12905045.0,3783.0,793.0,989.0,993.0,1991.0,-12904052.0,0.0,0.0,0.0,1.0,0.0,0.0,0.0,-0.13153822129426843,-9.54344410811322,-0.1349997534335921,-0.917306016920567,12903289.0,12903353.0,64.0,305.84050698861506,9.444362101922406,9.514015889795642,3.05866448555641,246.0,3.054160899322232,0.0,0.0,0.0,0.0,0.0,0.0,0.0,0.0,0.0,0.0,0.0,0.0,0.0,-9.773386754885905,-0.419718313158982,0.6166666666666667
117,15328.65264,3.8912681,2,18,2,2,2,1,4,2,-28.36538462,n/a,n/a,12905052.0,12908945.0,0.0,0.0,0.0,12907128.0,12905951.0,12907944.0,12905952.0,12906944.0,12907951.0,12908945.0,3893.0,900.0,992.0,994.0,1993.0,-12907951.0,0.0,0.0,0.0,1.0,0.0,0.0,0.0,-0.08999983562239604,9.73382837577598,0.079615239204425,-0.062307578507810525,12907098.0,12907162.0,64.0,393.03678205403065,9.82485332273485,9.863926616065402,0.014445788579733292,154.0,-0.03334437811943076,0.0,0.0,0.0,0.0,0.0,0.0,0.0,0.0,0.0,0.0,0.0,0.0,0.0,9.852900174224184,0.27244872959442784,0.575
118,15332.55208,3.9994596,2,19,2,2,2,1,1,1,-28.36538462,n/a,n/a,12908951.0,12912952.0,0.0,0.0,0.0,12912227.0,12909961.0,12911950.0,12909961.0,12910351.0,12911960.0,12912952.0,4001.0,1010.0,390.0,992.0,1989.0,-12911960.0,0.0,0.0,0.0,0.0,0.0,0.0,1.0,0.11769209273697762,9.23536774771348,0.5261528851770815,1.3153822129427,12912205.0,12912264.0,59.0,387.85725759059,9.151769898831404,9.175881863592133,-0.08634514101611462,1854.0,-0.09445098212272574,0.0,0.0,0.0,0.0,0.0,0.0,0.0,0.0,0.0,0.0,0.0,0.0,0.0,0.0,0.0,0.0
119,15336.55986,3.9577777,2,20,2,1,1,2,1,2,-28.36538462,n/a,n/a,12912959.0,12916918.0,0.0,0.0,0.0,12915108.0,12913926.0,12915918.0,12913926.0,12914318.0,12915925.0,12916918.0,3959.0,967.0,392.0,993.0,1992.0,-12915925.0,0.0,0.0,0.0,1.0,0.0,0.0,0.0,-0.1488458819908829,-10.156135296773371,-0.020769192835938154,-0.9034598883632762,12915090.0,12915154.0,64.0,378.4648047563128,10.046142757057963,10.16653344701942,3.053615565043721,772.0,3.055001794486818,0.0,0.0,0.0,0.0,0.0,0.0,0.0,0.0,0.0,0.0,0.0,0.0,0.0,-9.836997490356527,-0.3019026463073379,0.5833333333333334
120,15340.52615,3.7909621,2,21,2,2,2,2,2,1,-28.36538462,n/a,n/a,12916925.0,12920718.0,0.0,0.0,0.0,12918651.0,12917725.0,12919717.0,12917725.0,12918318.0,12919724.0,12920718.0,3793.0,800.0,593.0,994.0,1992.0,-12919724.0,0.0,0.0,0.0,1.0,0.0,0.0,0.0,-0.10038443204036315,9.439598143933534,0.08307677134374868,-0.5053836923411433,12918630.0,12918688.0,58.0,380.70909023439555,9.558114524696062,9.575787334078578,0.06160554491523628,312.0,0.08650347192804149,1.0,9.52267491527728,8.847676148109315,-0.35653781035025656,-0.08999983562239604,12919123.0,12919142.0,19.0,92.43724002775943,0.7257174571762081,0.7240562163915373,-2.76551494548668,2.7335621456595733,10.083489090305187,-0.15463306274278368,0.45416666666666666
121,15344.32558,3.7826733,2,22,2,1,2,1,5,2,-28.36538462,n/a,n/a,12920725.0,12924509.0,0.0,0.0,0.0,12922524.0,12921517.0,12923508.0,12921517.0,12922709.0,12923515.0,12924509.0,3784.0,792.0,1192.0,994.0,1991.0,-12923515.0,0.0,0.0,0.0,0.0,0.0,1.0,0.0,-0.03461532139322895,-9.432675079654887,0.1107690284583342,-0.044999917811196055,12922506.0,12922553.0,47.0,394.1597804023606,9.399350572485266,9.430235813175425,3.1250195854771756,-203.0,3.110754104247135,0.0,0.0,0.0,0.0,0.0,0.0,0.0,0.0,0.0,0.0,0.0,0.0,0.0,0.0,0.0,0.0
122,15348.11659,3.9994179,2,23,2,2,2,1,1,2,-28.36538462,n/a,n/a,12924515.0,12928516.0,0.0,0.0,0.0,12926158.0,12925526.0,12927517.0,12925526.0,12925915.0,12927523.0,12928516.0,4001.0,1011.0,389.0,993.0,1991.0,-12927523.0,0.0,0.0,0.0,1.0,0.0,0.0,0.0,-0.17999967124479208,9.304598390499939,-0.017307660696614473,-0.713075620700517,12926133.0,12926174.0,41.0,365.382531035433,9.51008377707683,9.520012019506204,0.0732264997989093,218.0,0.08628160263819455,1.0,9.311521454778585,9.73382837577598,-0.7165371528398408,-0.7061525564218697,12926176.0,12926203.0,27.0,51.633715314930775,0.42243458116620125,0.5448807845155521,-0.02458520936986555,0.23727465529936048,10.369737399922997,-0.6848035635751843,0.30416666666666664
123,15352.12435,3.6494729,2,24,2,1,1,1,3,2,-28.36538462,n/a,n/a,12928523.0,12932174.0,0.0,0.0,0.0,12930182.0,12929183.0,12931174.0,12929183.0,12929973.0,12931181.0,12932174.0,3651.0,660.0,790.0,993.0,1991.0,-12931181.0,0.0,0.0,0.0,1.0,0.0,0.0,0.0,-0.20423039622005,-9.886135789906188,-0.15576894626953025,-0.03807685353255263,12930165.0,12930213.0,48.0,399.9006072973214,9.682620692817702,9.688725192700778,-3.1294373709750785,192.0,3.104070051774869,1.0,-9.979597157667904,-9.941520304135354,-0.2007688640807263,-0.28384563542447894,12931633.0,12931653.0,20.0,22.566428648360635,0.091387070813334,0.13249124484675837,1.1410340476982537,2.1515526803625655,-10.01192701290074,0.022090437534684506,0.49166666666666664
124,15355.78215,3.8827857,2,25,2,2,1,2,3,1,-28.36538462,n/a,n/a,12932181.0,12936065.0,0.0,0.0,0.0,12934281.0,12933074.0,12935065.0,12933074.0,12933864.0,12935072.0,12936065.0,3884.0,893.0,790.0,993.0,1991.0,-12935072.0,0.0,0.0,0.0,1.0,0.0,0.0,0.0,-0.01384612855729079,9.612674750899679,-0.08999983562239604,-1.3153822129427,12934260.0,12934301.0,41.0,429.8316871282166,9.704198380766346,9.706399063154548,0.1266114282006235,396.0,0.1283802747038852,1.0,9.429213547515568,10.052289332593688,-1.5023049484661353,-1.5715355912525932,12935660.0,12935680.0,20.0,65.21515934783804,0.6269101337921912,0.6300463960809612,0.11065722117389565,0.14888994760949353,10.178905193511127,-0.33135656302025185,0.5916666666666667
125,15359.67327,3.9744582,2,26,2,1,1,2,5,2,-28.36538462,n/a,n/a,12936072.0,12940047.0,0.0,0.0,0.0,12937872.0,12937055.0,12939048.0,12937055.0,12938248.0,12939055.0,12940048.0,3975.0,983.0,1193.0,993.0,1993.0,-12939055.0,0.0,1.0,0.0,0.0,0.0,0.0,0.0,0.0,0.0,0.0,0.0,0.0,0.0,0.0,0.0,0.0,0.0,0.0,0.0,0.0,0.0,0.0,0.0,0.0,0.0,0.0,0.0,0.0,0.0,0.0,0.0,0.0,0.0,0.0,0.0,0.0
126,15363.65606,3.9994397,2,27,2,1,1,2,4,1,-28.36538462,n/a,n/a,12940055.0,12944056.0,0.0,0.0,0.0,12942288.0,12941064.0,12943056.0,12941064.0,12942054.0,12943063.0,12944056.0,4001.0,1009.0,990.0,993.0,1992.0,-12943063.0,0.0,0.0,0.0,1.0,0.0,0.0,0.0,-0.31499942467838415,-8.57767664124213,0.03461532139322895,-0.5192298208984342,12942266.0,12942335.0,69.0,267.39137718260673,8.281218462687825,8.305791106426344,3.0746630272966935,212.0,3.0627430923033554,0.0,0.0,0.0,0.0,0.0,0.0,0.0,0.0,0.0,0.0,0.0,0.0,0.0,-9.805192122621218,-0.36081047973316194,0.6
127,15367.66383,3.8078133,2,28,2,1,1,1,4,1,-28.36538462,n/a,n/a,12944062.0,12947872.0,0.0,0.0,0.0,12945996.0,12944879.0,12946872.0,12944879.0,12945872.0,12946879.0,12947872.0,3810.0,817.0,993.0,993.0,1993.0,-12946879.0,0.0,0.0,0.0,1.0,0.0,0.0,0.0,0.12461515701562499,-9.512290318859312,0.03461532139322895,-1.0626903667721301,12945973.0,12946029.0,56.0,335.1872270463334,9.699176610631874,9.76835537986209,3.028216012957838,101.0,3.0286657329401363,0.0,0.0,0.0,0.0,0.0,0.0,0.0,0.0,0.0,0.0,0.0,0.0,0.0,-9.908559567760978,-0.1693600210992387,0.5458333333333333
128,15371.48016,3.8492346,2,29,2,2,2,1,5,1,-28.36538462,n/a,n/a,12947879.0,12951730.0,0.0,0.0,0.0,12949688.0,12948738.0,12950729.0,12948738.0,12949930.0,12950736.0,12951730.0,3851.0,859.0,1192.0,994.0,1991.0,-12950736.0,0.0,0.0,0.0,0.0,0.0,1.0,0.0,-0.28730716756379865,8.622676559053327,-0.010384596417967108,-0.11423056059765394,12949664.0,12949722.0,58.0,390.1311211139841,8.910588869028713,8.913566243524704,0.011654483961824544,-266.0,-0.028352928385228824,0.0,0.0,0.0,0.0,0.0,0.0,0.0,0.0,0.0,0.0,0.0,0.0,0.0,0.0,0.0,0.0
129,15375.33789,3.657696,2,30,2,1,1,1,2,1,-28.36538462,n/a,n/a,12951737.0,12955396.0,0.0,0.0,0.0,12953696.0,12952403.0,12954397.0,12952403.0,12952996.0,12954403.0,12955396.0,3659.0,666.0,593.0,993.0,1994.0,-12954403.0,0.0,0.0,0.0,1.0,0.0,0.0,0.0,-0.6473065100533828,-8.826906955273381,-0.38423006746484206,-1.0592288346328065,12953678.0,12953740.0,62.0,234.79025284862757,8.207404387449266,8.234166460669135,3.0592569975139225,682.0,3.055728345063798,0.0,0.0,0.0,0.0,0.0,0.0,0.0,0.0,0.0,0.0,0.0,0.0,0.0,-9.733630045216765,-0.4933531049412611,0.6375
130,15379.00392,3.9661413,2,31,2,2,2,2,4,1,-28.36538462,n/a,n/a,12955402.0,12959370.0,0.0,0.0,0.0,12957562.0,12956378.0,12958371.0,12956379.0,12957369.0,12958377.0,12959370.0,3968.0,977.0,990.0,993.0,1993.0,-12958377.0,0.0,0.0,0.0,1.0,0.0,0.0,0.0,-0.27346103900650787,8.494599869898385,0.10038443204036315,-0.07615370706510526,12957546.0,12957595.0,49.0,375.5780095302427,8.769837958413197,8.78723484368928,0.020131508130402608,177.0,0.052810809593505155,0.0,0.0,0.0,0.0,0.0,0.0,0.0,0.0,0.0,0.0,0.0,0.0,0.0,9.83699749035653,0.3019026463073379,0.5833333333333334
131,15382.9784,3.9827371,2,32,2,1,1,2,5,1,-28.36538462,n/a,n/a,12959377.0,12963361.0,0.0,0.0,0.0,12961336.0,12960370.0,12962362.0,12960370.0,12961561.0,12962368.0,12963361.0,3984.0,993.0,1191.0,993.0,1992.0,-12962368.0,0.0,0.0,0.0,0.0,0.0,1.0,0.0,-0.5192298208984342,-9.294213794081971,0.10384596417968683,-0.14538434985156315,12961324.0,12961366.0,42.0,365.05125669921955,8.77852262508106,8.76838956381111,3.113197920375258,-237.0,3.1009197193629188,0.0,0.0,0.0,0.0,0.0,0.0,0.0,0.0,0.0,0.0,0.0,0.0,0.0,0.0,0.0,0.0
132,15386.96945,3.7994847,2,33,2,2,1,1,5,1,-28.36538462,n/a,n/a,12963368.0,12967169.0,0.0,0.0,0.0,12966094.0,12964178.0,12966169.0,12964178.0,12965368.0,12966176.0,12967170.0,3801.0,810.0,1190.0,994.0,1991.0,-12966176.0,0.0,0.0,0.0,1.0,0.0,0.0,0.0,-0.2526918461705697,9.768443697169209,-0.4223069209973947,-2.6688412794179524,12966077.0,12966133.0,56.0,485.5699432664886,10.269862423691562,10.278566076533911,0.22053345583267514,709.0,0.22276009780014525,0.0,0.0,0.0,0.0,0.0,0.0,0.0,0.0,0.0,0.0,0.0,0.0,0.0,10.862720599820321,-1.5978749816754274,0.95
133,15390.77739,3.9993264,2,34,2,1,1,2,3,2,-28.36538462,n/a,n/a,12967176.0,12971176.0,0.0,0.0,0.0,12969609.0,12968186.0,12970177.0,12968186.0,12968975.0,12970184.0,12971177.0,4000.0,1010.0,789.0,993.0,1991.0,-12970184.0,0.0,0.0,0.0,1.0,0.0,0.0,0.0,-0.5296144173164012,-9.796135954283791,-0.1211536248763013,-1.394997452147125,12969595.0,12969634.0,39.0,346.684055926606,9.353667702637102,9.353196917143574,3.0049815705824905,620.0,3.005348213333153,0.0,0.0,0.0,0.0,0.0,0.0,0.0,0.0,0.0,0.0,0.0,0.0,0.0,-9.606408574275521,-0.7289844386445494,0.7041666666666667
134,15394.78504,3.9994559,2,35,2,2,1,1,3,2,-28.36538462,n/a,n/a,12971183.0,12975184.0,0.0,0.0,0.0,12972843.0,12972193.0,12974185.0,12972193.0,12972985.0,12974191.0,12975185.0,4001.0,1010.0,792.0,994.0,1992.0,-12974191.0,0.0,0.0,0.0,0.0,0.0,1.0,0.0,-0.07615370706510526,8.529215191291614,0.08653830348307236,0.10384596417968683,12972821.0,12972864.0,43.0,398.8551148141219,8.60538630346854,8.548246434271828,-0.0020112603612434075,-164.0,-0.03483193555892939,0.0,0.0,0.0,0.0,0.0,0.0,0.0,0.0,0.0,0.0,0.0,0.0,0.0,0.0,0.0,0.0
135,15398.79282,3.5078077,2,36,2,2,1,1,4,1,-28.36538462,n/a,n/a,12975191.0,12978701.0,0.0,0.0,0.0,12976541.0,12975708.0,12977701.0,12975708.0,12976701.0,12977708.0,12978701.0,3510.0,517.0,993.0,993.0,1993.0,-12977708.0,0.0,0.0,0.0,0.0,0.0,1.0,0.0,-0.3530762782109368,9.245752344131448,-0.1765381391054684,-0.2526918461705697,12976523.0,12976579.0,56.0,366.9772828256747,9.599130705860773,9.604821081911595,0.007933479422055717,-178.0,0.035326083960550855,0.0,0.0,0.0,0.0,0.0,0.0,0.0,0.0,0.0,0.0,0.0,0.0,0.0,0.0,0.0,0.0
136,15402.30898,3.7910944,2,37,2,2,1,1,3,2,-28.36538462,n/a,n/a,12978707.0,12982500.0,0.0,0.0,0.0,12980567.0,12979507.0,12981500.0,12979507.0,12980300.0,12981507.0,12982500.0,3793.0,800.0,793.0,993.0,1993.0,-12981507.0,0.0,0.0,0.0,1.0,0.0,0.0,0.0,-0.32192248895702763,8.913445258756454,-0.3011532961210934,-0.7269217492578078,12980545.0,12980604.0,59.0,350.4885572898088,9.245176916165141,9.276266761199723,0.0460693290775245,245.0,0.07133405133780589,0.0,0.0,0.0,0.0,0.0,0.0,0.0,0.0,0.0,0.0,0.0,0.0,0.0,10.043732380636053,-0.08099827096050462,0.5208333333333334
137,15406.10844,3.6744598,2,38,2,2,2,1,1,1,-28.36538462,n/a,n/a,12982507.0,12986183.0,0.0,0.0,0.0,12984116.0,12983190.0,12985183.0,12983190.0,12983583.0,12985190.0,12986183.0,3676.0,683.0,393.0,993.0,1993.0,-12985190.0,0.0,0.0,0.0,1.0,0.0,0.0,0.0,-0.10384596417968683,8.851137680248643,0.24576878189192627,-0.3080763603997368,12984087.0,12984140.0,53.0,418.8851198953675,8.972094321484752,9.198116179175155,0.06176902187023587,504.0,0.07382783696895448,0.0,0.0,0.0,0.0,0.0,0.0,0.0,0.0,0.0,0.0,0.0,0.0,0.0,10.091440432239018,-0.1693600210992387,0.45
138,15409.79125,3.6744987,2,39,2,2,2,2,3,2,-28.36538462,n/a,n/a,12986190.0,12989865.0,0.0,0.0,0.0,12987889.0,12986873.0,12988866.0,12986873.0,12987666.0,12988873.0,12989865.0,3675.0,683.0,793.0,992.0,1993.0,-12988873.0,0.0,0.0,0.0,1.0,0.0,0.0,0.0,-0.01384612855729079,10.45728859289446,0.13153822129426843,-0.19384579980208289,12987872.0,12987917.0,45.0,414.81054545742484,10.476189054994057,10.594143949633068,0.031064383971833576,206.0,0.06015646264095241,0.0,0.0,0.0,0.0,0.0,0.0,0.0,0.0,0.0,0.0,0.0,0.0,0.0,9.996024329033087,0.007363479178229481,0.5
139,15413.47409,3.8662896,2,40,2,1,2,1,5,1,-28.36538462,n/a,n/a,12989872.0,12993740.0,0.0,0.0,0.0,12991939.0,12990749.0,12992740.0,12990749.0,12991939.0,12992747.0,12993741.0,3868.0,877.0,1190.0,994.0,1991.0,-12992747.0,0.0,0.0,0.0,1.0,0.0,0.0,0.0,-0.28730716756379865,-9.64036700801426,0.031153789253905263,0.05192298208984342,12991922.0,12991980.0,58.0,397.0166775811976,9.353082900221631,9.345301483960807,-3.1393720798895335,-17.0,3.1178846103530535,0.0,0.0,0.0,0.0,0.0,0.0,0.0,0.0,0.0,0.0,0.0,0.0,0.0,-10.170953851577297,0.3166296046637929,0.5875
140,15417.34856,3.8577942,2,41,2,1,1,2,1,2,-28.36538462,n/a,n/a,12993747.0,12997607.0,0.0,0.0,0.0,12995113.0,12994613.0,12996606.0,12994613.0,12995007.0,12996613.0,12997607.0,3860.0,866.0,394.0,994.0,1993.0,-12996613.0,0.0,0.0,0.0,1.0,0.0,0.0,0.0,-0.28384563542447894,-10.169981425330661,0.0034615321393236813,0.11769209273697762,12995094.0,12995150.0,56.0,361.87913905203993,9.88679571334608,9.937911676891067,-3.130038545916304,87.0,-3.104662779951563,0.0,0.0,0.0,0.0,0.0,0.0,0.0,0.0,0.0,0.0,0.0,0.0,0.0,-10.489007528930411,0.9057079389220176,0.24166666666666667
141,15421.21469,3.8327882,2,42,2,2,1,2,5,1,-28.36538462,n/a,n/a,12997613.0,13001448.0,0.0,0.0,0.0,12999463.0,12998456.0,13000447.0,12998456.0,12999648.0,13000454.0,13001448.0,3835.0,843.0,1192.0,994.0,1991.0,-13000454.0,0.0,0.0,0.0,0.0,0.0,1.0,0.0,-0.498460628062496,8.716137926815046,0.10730749631901051,-0.5573066744309868,12999437.0,12999499.0,62.0,348.4728414320368,9.23853551833368,9.236858369706958,0.07200153835242709,-211.0,0.07464496874698782,0.0,0.0,0.0,0.0,0.0,0.0,0.0,0.0,0.0,0.0,0.0,0.0,0.0,0.0,0.0,0.0
142,15425.05578,3.9994847,2,43,2,1,2,2,5,1,-28.36538462,n/a,n/a,13001454.0,13005455.0,0.0,0.0,0.0,13002847.0,13002464.0,13004455.0,13002464.0,13003656.0,13004462.0,13005455.0,4001.0,1010.0,1192.0,993.0,1991.0,-13004462.0,0.0,1.0,0.0,0.0,0.0,0.0,0.0,0.0,0.0,0.0,0.0,0.0,0.0,0.0,0.0,0.0,0.0,0.0,0.0,0.0,0.0,0.0,0.0,0.0,0.0,0.0,0.0,0.0,0.0,0.0,0.0,0.0,0.0,0.0,0.0,0.0
143,15429.06359,3.5078277,2,44,2,1,1,2,2,2,-28.36538462,n/a,n/a,13005462.0,13008971.0,0.0,0.0,0.0,13006388.0,13005978.0,13007972.0,13005978.0,13006571.0,13007978.0,13008971.0,3509.0,516.0,593.0,993.0,1994.0,-13007978.0,0.0,0.0,0.0,0.0,0.0,1.0,0.0,-0.2388457176132789,-10.311904243042902,-0.020769192835938154,0.8030754563229131,13006377.0,13006424.0,47.0,396.0917382066938,10.106692241414995,10.122954681136187,-3.0599873440387135,-194.0,-3.0422642528718224,0.0,0.0,0.0,0.0,0.0,0.0,0.0,0.0,0.0,0.0,0.0,0.0,0.0,0.0,0.0,0.0
144,15432.57975,3.8077882,2,45,2,1,1,2,2,1,-28.36538462,n/a,n/a,13008978.0,13012787.0,0.0,0.0,0.0,13010661.0,13009795.0,13011788.0,13009795.0,13010387.0,13011794.0,13012788.0,3809.0,817.0,592.0,994.0,1993.0,-13011794.0,0.0,0.0,0.0,1.0,0.0,0.0,0.0,-0.23538418547395523,-10.208058278863215,0.06576911064713421,0.0034615321393236813,13010641.0,13010717.0,76.0,365.2139695413276,9.972868735088054,10.15688090277581,3.1353449042690156,254.0,3.1027309191717007,0.0,0.0,0.0,0.0,0.0,0.0,0.0,0.0,0.0,0.0,0.0,0.0,0.0,-10.139148483841984,0.2577217712379728,0.425
145,15436.396,3.8410296,2,46,2,2,2,1,1,1,-28.36538462,n/a,n/a,13012794.0,13016636.0,0.0,0.0,0.0,13014377.0,13013644.0,13015637.0,13013644.0,13014037.0,13015644.0,13016636.0,3842.0,850.0,393.0,992.0,1993.0,-13015644.0,0.0,0.0,0.0,1.0,0.0,0.0,0.0,-0.5261528851770815,8.615753494774687,-0.0,-0.6057681243815065,13014355.0,13014421.0,66.0,322.6314877254728,9.161954337384548,9.183023970413856,0.06616605271430993,318.0,-0.09059163247421127,0.0,0.0,0.0,0.0,0.0,0.0,0.0,0.0,0.0,0.0,0.0,0.0,0.0,10.274321296717059,-0.5080800632977162,0.3541666666666667
146,15440.24537,3.7744694,2,47,2,1,2,2,3,2,-28.36538462,n/a,n/a,13016643.0,13020419.0,0.0,0.0,0.0,13017660.0,13017427.0,13019420.0,13017427.0,13018220.0,13019427.0,13020420.0,3776.0,784.0,793.0,993.0,1993.0,-13019427.0,0.0,0.0,0.0,0.0,1.0,0.0,0.0,0.0,0.0,0.0,0.0,0.0,0.0,0.0,0.0,0.0,0.0,0.0,0.0,0.0,0.0,0.0,0.0,0.0,0.0,0.0,0.0,0.0,0.0,0.0,0.0,0.0,0.0,0.0,0.0,0.0
147,15444.02817,3.8994437,2,48,2,1,1,2,1,1,-28.36538462,n/a,n/a,13020426.0,13024328.0,0.0,0.0,0.0,13021686.0,13021336.0,13023327.0,13021336.0,13021728.0,13023335.0,13024328.0,3902.0,910.0,392.0,993.0,1991.0,-13023335.0,0.0,0.0,0.0,0.0,1.0,0.0,0.0,0.0,0.0,0.0,0.0,0.0,0.0,0.0,0.0,0.0,0.0,0.0,0.0,0.0,0.0,0.0,0.0,0.0,0.0,0.0,0.0,0.0,0.0,0.0,0.0,0.0,0.0,0.0,0.0,0.0
148,15447.93593,3.799481,2,49,2,2,2,1,2,2,-28.36538462,n/a,n/a,13024334.0,13028135.0,0.0,0.0,0.0,13026067.0,13025144.0,13027135.0,13025144.0,13025734.0,13027142.0,13028135.0,3801.0,810.0,590.0,993.0,1991.0,-13027142.0,0.0,0.0,0.0,1.0,0.0,0.0,0.0,0.010384596417967108,9.325367583335881,0.020769192835938154,-0.24576878189192627,13026054.0,13026093.0,39.0,382.6541601227314,9.318795551923124,9.326796287455792,0.028606092754183108,320.0,0.04232240965421876,0.0,0.0,0.0,0.0,0.0,0.0,0.0,0.0,0.0,0.0,0.0,0.0,0.0,10.083489090305187,-0.15463306274278368,0.45416666666666666
149,15451.74395,3.9742326,2,50,2,1,1,1,5,2,-28.36538462,n/a,n/a,13028142.0,13032118.0,0.0,0.0,0.0,13029808.0,13029125.0,13031118.0,13029125.0,13030318.0,13031125.0,13032118.0,3976.0,983.0,1193.0,993.0,1993.0,-13031125.0,0.0,1.0,0.0,0.0,0.0,0.0,0.0,0.0,0.0,0.0,0.0,0.0,0.0,0.0,0.0,0.0,0.0,0.0,0.0,0.0,0.0,0.0,0.0,0.0,0.0,0.0,0.0,0.0,0.0,0.0,0.0,0.0,0.0,0.0,0.0,0.0
150,15455.72652,3.9994375,2,51,2,2,2,1,2,1,-28.36538462,n/a,n/a,13032124.0,13036126.0,0.0,0.0,0.0,13034034.0,13033134.0,13035125.0,13033134.0,13033724.0,13035132.0,13036126.0,4002.0,1010.0,590.0,994.0,1991.0,-13035132.0,0.0,0.0,0.0,0.0,1.0,0.0,0.0,0.0,0.0,0.0,0.0,0.0,0.0,0.0,0.0,0.0,0.0,0.0,0.0,0.0,0.0,0.0,0.0,0.0,0.0,0.0,0.0,0.0,0.0,0.0,0.0,0.0,0.0,0.0,0.0,0.0
151,15459.7344,3.8076936,2,52,2,1,1,1,5,2,-28.36538462,n/a,n/a,13036132.0,13039942.0,0.0,0.0,0.0,13038192.0,13036949.0,13038942.0,13036949.0,13038142.0,13038948.0,13039942.0,3810.0,817.0,1193.0,994.0,1993.0,-13038948.0,0.0,0.0,0.0,1.0,0.0,0.0,0.0,-0.498460628062496,-10.699595842647067,-0.09346136776171972,-0.29076869970312236,13038171.0,13038233.0,62.0,503.7599725907063,10.203043166108591,10.296284726504027,3.1222533615413757,29.0,-3.0931620251299514,0.0,0.0,0.0,0.0,0.0,0.0,0.0,0.0,0.0,0.0,0.0,0.0,0.0,-9.781338096819734,-0.404991354802527,0.6125
152,15463.55057,3.9993434,2,53,2,1,1,1,1,1,-28.36538462,n/a,n/a,13039949.0,13043949.0,0.0,0.0,0.0,13041925.0,13040958.0,13042950.0,13040958.0,13041348.0,13042957.0,13043949.0,4000.0,1009.0,390.0,992.0,1992.0,-13042957.0,0.0,0.0,0.0,1.0,0.0,0.0,0.0,-0.3599993424895802,-10.048827800454362,-0.2699995068671842,0.3911531317434855,13041895.0,13041968.0,73.0,429.23618869382744,9.711360342372743,9.891380631792426,-3.073459620074639,547.0,-3.059962653077265,0.0,0.0,0.0,0.0,0.0,0.0,0.0,0.0,0.0,0.0,0.0,0.0,0.0,-10.059635064503706,0.1104521876734186,0.4666666666666667
153,15467.55821,3.8744476,2,54,2,2,1,2,5,2,-28.36538462,n/a,n/a,13043956.0,13047832.0,0.0,0.0,0.0,13045606.0,13044839.0,13046833.0,13044839.0,13046032.0,13046839.0,13047832.0,3876.0,883.0,1193.0,993.0,1994.0,-13046839.0,0.0,0.0,0.0,0.0,0.0,1.0,0.0,-0.4396145816940092,9.394598226122339,-0.2007688640807263,-0.05884604636849078,13045582.0,13045646.0,64.0,372.6956457854281,9.835236836782654,9.868240464727167,-0.014430536433862948,-450.0,0.044563174191117626,0.0,0.0,0.0,0.0,0.0,0.0,0.0,0.0,0.0,0.0,0.0,0.0,0.0,0.0,0.0,0.0
154,15471.441,3.524641,2,55,2,1,1,1,5,2,-28.36538462,n/a,n/a,13047839.0,13051365.0,0.0,0.0,0.0,13049122.0,13048372.0,13050365.0,13048372.0,13049565.0,13050372.0,13051366.0,3526.0,533.0,1193.0,994.0,1993.0,-13050372.0,0.0,0.0,0.0,0.0,0.0,1.0,0.0,-0.4569222423906236,-10.156135296773371,0.031153789253905263,0.2699995068671842,13049104.0,13049151.0,47.0,339.7012698432197,9.70215342855033,9.707097127709263,-3.1169723617322482,-461.0,-3.1012861583742586,0.0,0.0,0.0,0.0,0.0,0.0,0.0,0.0,0.0,0.0,0.0,0.0,0.0,0.0,0.0,0.0
155,15474.97384,3.8827945,2,56,2,2,1,2,5,2,-28.36538462,n/a,n/a,13051372.0,13055256.0,0.0,0.0,0.0,13053221.0,13052265.0,13054256.0,13052265.0,13053457.0,13054263.0,13055256.0,3884.0,893.0,1192.0,993.0,1991.0,-13054263.0,0.0,0.0,0.0,0.0,0.0,1.0,0.0,-0.3253840210963513,8.366523180743437,0.031153789253905263,-0.5503836101523394,13053204.0,13053252.0,48.0,399.0540901010107,8.71133953834326,8.782337501247945,0.06680605132981692,-253.0,0.07495810849457171,0.0,0.0,0.0,0.0,0.0,0.0,0.0,0.0,0.0,0.0,0.0,0.0,0.0,0.0,0.0,0.0
156,15478.86509,3.6576907,2,57,2,2,1,1,3,1,-28.36538462,n/a,n/a,13055263.0,13058922.0,0.0,0.0,0.0,13056663.0,13055929.0,13057922.0,13055930.0,13056723.0,13057929.0,13058922.0,3659.0,667.0,793.0,993.0,1993.0,-13057929.0,0.0,0.0,0.0,1.0,0.0,0.0,0.0,-0.4707683709479144,8.45652301636583,0.020769192835938154,-0.2388457176132789,13056646.0,13056704.0,58.0,390.1400790499396,8.93106552521779,8.895313930784159,0.02907284530859061,-77.0,0.05411702232462465,0.0,0.0,0.0,0.0,0.0,0.0,0.0,0.0,0.0,0.0,0.0,0.0,0.0,9.733630045216769,0.4933531049412611,0.35833333333333334
157,15482.53112,3.9994365,2,58,2,2,2,2,5,1,-28.36538462,n/a,n/a,13058929.0,13062930.0,0.0,0.0,0.0,13060872.0,13059938.0,13061930.0,13059938.0,13061130.0,13061937.0,13062930.0,4001.0,1009.0,1192.0,993.0,1992.0,-13061937.0,0.0,0.0,0.0,0.0,0.0,1.0,0.0,-0.3080763603997368,8.7992146981588,0.10384596417968683,-0.30461482826041314,13060851.0,13060904.0,53.0,358.1101433132516,9.116446163075889,9.13501741937438,0.04481983121896328,-279.0,0.06750078770828746,0.0,0.0,0.0,0.0,0.0,0.0,0.0,0.0,0.0,0.0,0.0,0.0,0.0,0.0,0.0,0.0
158,15486.53889,3.8161366,2,59,2,1,1,2,5,1,-28.36538462,n/a,n/a,13062937.0,13066754.0,0.0,0.0,0.0,13064853.0,13063763.0,13065754.0,13063764.0,13064955.0,13065761.0,13066754.0,3817.0,827.0,1191.0,993.0,1991.0,-13065761.0,0.0,0.0,0.0,0.0,0.0,1.0,0.0,-0.5607682065703105,-9.498444190302022,0.14192281771223947,-0.1626920105481776,13064839.0,13064897.0,58.0,350.76906456018645,8.942865434734593,8.989633621063046,3.1075237339844977,-116.0,3.0934417744072285,0.0,0.0,0.0,0.0,0.0,0.0,0.0,0.0,0.0,0.0,0.0,0.0,0.0,0.0,0.0,0.0
159,15490.36347,3.9993466,2,60,2,2,2,1,2,1,-28.36538462,n/a,n/a,13066761.0,13070762.0,0.0,0.0,0.0,13068794.0,13067770.0,13069763.0,13067771.0,13068361.0,13069769.0,13070762.0,4001.0,1010.0,590.0,993.0,1993.0,-13069769.0,0.0,0.0,0.0,1.0,0.0,0.0,0.0,-0.373845471046871,8.781907037462185,0.06576911064713421,-0.3807685353255184,13068772.0,13068821.0,49.0,392.2501278835249,9.166635144170442,9.347370666827011,0.04873265193180973,411.0,0.06299631050925779,0.0,0.0,0.0,0.0,0.0,0.0,0.0,0.0,0.0,0.0,0.0,0.0,0.0,9.996024329033087,0.007363479178229481,0.5
160,15494.37113,3.999649945,2,61,2,1,1,1,5,2,-28.36538462,n/a,n/a,13070769.0,13074770.0,0.0,0.0,0.0,13072212.0,13071778.0,13073771.0,13071779.0,13072970.0,13073777.0,13074770.0,4001.0,1010.0,1191.0,993.0,1993.0,-13073777.0,0.0,1.0,0.0,0.0,0.0,0.0,0.0,0.0,0.0,0.0,0.0,0.0,0.0,0.0,0.0,0.0,0.0,0.0,0.0,0.0,0.0,0.0,0.0,0.0,0.0,0.0,0.0,0.0,0.0,0.0,0.0,0.0,0.0,0.0,0.0,0.0
161,15498.37891,3.8161089,2,62,2,1,1,1,2,2,-28.36538462,n/a,n/a,13074777.0,13078594.0,0.0,0.0,0.0,13076087.0,13075603.0,13077595.0,13075603.0,13076194.0,13077601.0,13078594.0,3817.0,826.0,591.0,993.0,1992.0,-13077601.0,0.0,0.0,0.0,0.0,0.0,1.0,0.0,-0.18346120338411182,-9.764982165029886,-0.18346120338411182,0.7892293277656184,13076068.0,13076126.0,58.0,399.38049499154516,9.630766885759705,9.645734927845746,-3.040421910028494,-126.0,-3.0261401614394483,0.0,0.0,0.0,0.0,0.0,0.0,0.0,0.0,0.0,0.0,0.0,0.0,0.0,0.0,0.0,0.0
162,15502.20336,3.7495359,2,63,2,2,2,1,5,2,-28.36538462,n/a,n/a,13078601.0,13082352.0,0.0,0.0,0.0,13080368.0,13079361.0,13081352.0,13079361.0,13080552.0,13081359.0,13082353.0,3751.0,760.0,1191.0,994.0,1991.0,-13081359.0,0.0,0.0,0.0,0.0,0.0,1.0,0.0,-0.6126911886601539,8.868445340945257,-0.0,-0.5053836923411433,13080347.0,13080399.0,52.0,308.1616984676183,9.494596493243012,9.499595862043746,0.05325372661855732,-205.0,0.062350620429066854,0.0,0.0,0.0,0.0,0.0,0.0,0.0,0.0,0.0,0.0,0.0,0.0,0.0,0.0,0.0,0.0
163,15505.96115,3.9910828,2,64,2,2,1,2,1,1,-28.36538462,n/a,n/a,13082359.0,13086351.0,0.0,0.0,0.0,13084052.0,13083359.0,13085352.0,13083359.0,13083752.0,13085359.0,13086352.0,3992.0,1000.0,393.0,993.0,1993.0,-13085359.0,0.0,1.0,0.0,0.0,0.0,0.0,0.0,0.0,0.0,0.0,0.0,0.0,0.0,0.0,0.0,0.0,0.0,0.0,0.0,0.0,0.0,0.0,0.0,0.0,0.0,0.0,0.0,0.0,0.0,0.0,0.0,0.0,0.0,0.0,0.0,0.0
164,15509.96057,3.5078732,2,65,2,1,2,2,4,1,-28.36538462,n/a,n/a,13086358.0,13089868.0,0.0,0.0,0.0,13087708.0,13086875.0,13088868.0,13086875.0,13087868.0,13088874.0,13089868.0,3510.0,517.0,993.0,994.0,1993.0,-13088874.0,0.0,0.0,0.0,0.0,0.0,1.0,0.0,-0.2319226533346355,-9.041521947911402,-0.3530762782109368,0.01384612855729079,13087689.0,13087764.0,75.0,352.516351844145,8.817237196741168,8.895313930784155,-3.099966418099218,-179.0,-3.0874756312651686,0.0,0.0,0.0,0.0,0.0,0.0,0.0,0.0,0.0,0.0,0.0,0.0,0.0,0.0,0.0,0.0
165,15513.47677,3.9995008,2,66,2,1,2,1,1,2,-28.36538462,n/a,n/a,13089874.0,13093876.0,0.0,0.0,0.0,13091457.0,13090884.0,13092875.0,13090884.0,13091274.0,13092882.0,13093876.0,4002.0,1010.0,390.0,994.0,1991.0,-13092882.0,0.0,0.0,0.0,1.0,0.0,0.0,0.0,-0.328845553235675,-9.588444025924417,-0.1626920105481776,-0.33230708537499865,13091442.0,13091483.0,41.0,419.42389800902527,9.26115182625942,9.25870554844804,3.123276944949494,168.0,-3.1180368020086733,0.0,0.0,0.0,0.0,0.0,0.0,0.0,0.0,0.0,0.0,0.0,0.0,0.0,-9.582554548474038,-0.7731653137139184,0.2791666666666667
166,15517.48457,3.899447,2,67,2,1,2,1,3,1,-28.36538462,n/a,n/a,13093882.0,13097783.0,0.0,0.0,0.0,13095332.0,13094791.0,13096783.0,13094791.0,13095583.0,13096790.0,13097783.0,3901.0,909.0,792.0,993.0,1992.0,-13096790.0,0.0,0.0,0.0,0.0,0.0,1.0,0.0,-1.3361514057786381,-8.785368569601504,-0.08653830348307236,-0.08307677134374868,13095322.0,13095373.0,51.0,298.92578720604973,7.449217968082149,7.493929281287971,-3.14112796960837,-261.0,-3.112488120112841,0.0,0.0,0.0,0.0,0.0,0.0,0.0,0.0,0.0,0.0,0.0,0.0,0.0,0.0,0.0,0.0
167,15521.39244,3.8577348,2,68,2,2,1,1,2,2,-28.36538462,n/a,n/a,13097790.0,13101649.0,0.0,0.0,0.0,13099190.0,13098656.0,13100650.0,13098656.0,13099249.0,13100656.0,13101649.0,3859.0,866.0,593.0,993.0,1994.0,-13100656.0,0.0,0.0,0.0,1.0,0.0,0.0,0.0,-0.6299988493567683,8.574215109102811,-0.0692306427864579,-0.27346103900650787,13099168.0,13099219.0,51.0,378.61955545716546,9.206479492609667,9.20913936808792,0.022185152359158685,-81.0,0.032707399150965856,1.0,6.947295003621051,7.497678613773386,-0.3807685353255184,-0.22499958905598813,13100769.0,13100790.0,21.0,56.13068832305235,0.572001820754303,0.6196239219475396,-0.2758058985885247,0.33588388888991094,9.534846496871069,0.8615270638526485,0.25416666666666665
168,15525.25851,3.6411545,2,69,2,1,2,1,2,2,-28.36538462,n/a,n/a,13101656.0,13105298.0,0.0,0.0,0.0,13103099.0,13102306.0,13104299.0,13102306.0,13102899.0,13104306.0,13105298.0,3642.0,650.0,593.0,992.0,1993.0,-13104306.0,0.0,0.0,0.0,1.0,0.0,0.0,0.0,-0.33576861751432235,-9.224983151295513,-0.044999917811196055,-0.882690695527338,13103077.0,13103127.0,50.0,304.09263774577767,8.928597922779222,8.783865443212886,3.0476333750620697,178.0,3.0460805139038807,0.0,0.0,0.0,0.0,0.0,0.0,0.0,0.0,0.0,0.0,0.0,0.0,0.0,-9.789289438753562,-0.39026439644607197,0.3875
169,15528.90798,3.9994435,2,70,2,2,2,1,5,1,-28.36538462,n/a,n/a,13105305.0,13109306.0,0.0,0.0,0.0,13107181.0,13106315.0,13108307.0,13106315.0,13107507.0,13108313.0,13109306.0,4001.0,1010.0,1192.0,993.0,1992.0,-13108313.0,0.0,0.0,0.0,0.0,1.0,0.0,0.0,0.0,0.0,0.0,0.0,0.0,0.0,0.0,0.0,0.0,0.0,0.0,0.0,0.0,0.0,0.0,0.0,0.0,0.0,0.0,0.0,0.0,0.0,0.0,0.0,0.0,0.0,0.0,0.0,0.0
170,15532.91576,3.9996084,2,71,2,1,1,1,2,1,-28.36538462,n/a,n/a,13109313.0,13113314.0,0.0,0.0,0.0,13111172.0,13110323.0,13112314.0,13110323.0,13110913.0,13112321.0,13113315.0,4001.0,1010.0,590.0,994.0,1991.0,-13112321.0,0.0,1.0,0.0,0.0,0.0,0.0,0.0,0.0,0.0,0.0,0.0,0.0,0.0,0.0,0.0,0.0,0.0,0.0,0.0,0.0,0.0,0.0,0.0,0.0,0.0,0.0,0.0,0.0,0.0,0.0,0.0,0.0,0.0,0.0,0.0,0.0
171,15536.92354,3.9994411,2,72,2,2,2,2,1,1,-28.36538462,n/a,n/a,13113321.0,13117322.0,0.0,0.0,0.0,13115048.0,13114331.0,13116322.0,13114331.0,13114721.0,13116329.0,13117322.0,4001.0,1010.0,390.0,993.0,1991.0,-13116329.0,0.0,0.0,0.0,1.0,0.0,0.0,0.0,-0.6473065100533828,8.993060497960878,-0.28038410328515523,-1.1873055237877512,13115019.0,13115068.0,49.0,407.9038622742821,9.68293253679774,9.680361380208565,0.09379934026470269,298.0,0.09849448473330297,0.0,0.0,0.0,0.0,0.0,0.0,0.0,0.0,0.0,0.0,0.0,0.0,0.0,10.290223980584718,-0.5375339800106261,0.3458333333333333
172,15540.93144,3.9493179,2,73,2,2,2,2,3,2,-28.36538462,n/a,n/a,13117329.0,13121280.0,0.0,0.0,0.0,13119322.0,13118288.0,13120280.0,13118288.0,13119078.0,13120287.0,13121280.0,3951.0,959.0,790.0,993.0,1992.0,-13120287.0,0.0,0.0,0.0,1.0,0.0,0.0,0.0,-0.6507680421927026,9.384213629704364,0.0553845142291671,-0.36692240676822757,13119297.0,13119357.0,60.0,390.88670384866003,10.043863812837785,10.048765795553711,0.04205865988033952,219.0,0.05238390531208814,0.0,0.0,0.0,0.0,0.0,0.0,0.0,0.0,0.0,0.0,0.0,0.0,0.0,9.988072987099256,0.022090437534684506,0.5041666666666667
173,15563.15321,3.7077997,2,74,2,1,2,2,2,2,-28.36538462,n/a,n/a,13139550.0,13143260.0,0.0,0.0,0.0,13141242.0,13140268.0,13142260.0,13140268.0,13140858.0,13142267.0,13143260.0,3710.0,718.0,590.0,993.0,1992.0,-13142267.0,0.0,0.0,0.0,1.0,0.0,0.0,0.0,0.4430761138333289,-9.259598472688742,0.12461515701562499,0.7407678778150986,13141222.0,13141267.0,45.0,390.8573260836093,9.722218795485412,9.7086196107327,-3.0781744213707354,364.0,-3.0723682015922438,0.0,0.0,0.0,0.0,0.0,0.0,0.0,0.0,0.0,0.0,0.0,0.0,0.0,-9.956267619363944,-0.08099827096050462,0.475
174,15566.86943,3.907832,2,75,2,1,1,2,1,2,-28.36538462,n/a,n/a,13143267.0,13147176.0,0.0,0.0,0.0,13144700.0,13144183.0,13146176.0,13144183.0,13144576.0,13146183.0,13147176.0,3909.0,916.0,393.0,993.0,1993.0,-13146183.0,0.0,0.0,0.0,1.0,0.0,0.0,0.0,0.5988450601028592,-9.761520632890562,0.3461532139322894,1.0488442382148373,13144680.0,13144742.0,62.0,412.583153999399,10.384168333003965,10.440027988728973,-3.073871445844056,104.0,-3.064261307592502,0.0,0.0,0.0,0.0,0.0,0.0,0.0,0.0,0.0,0.0,0.0,0.0,0.0,-10.473104845062753,0.8762540222091075,0.25
175,15570.78547,3.8328088,2,76,2,2,2,1,2,2,-28.36538462,n/a,n/a,13147183.0,13151017.0,0.0,0.0,0.0,13148825.0,13148025.0,13150016.0,13148026.0,13148616.0,13150024.0,13151017.0,3834.0,843.0,590.0,993.0,1991.0,-13150024.0,0.0,0.0,0.0,1.0,0.0,0.0,0.0,1.1249979452799406,11.315748563446546,-0.49153756378385255,-1.1699978630911367,13148814.0,13148886.0,72.0,486.9440609275806,10.213310263543313,10.37706600906487,0.06647798431894826,198.0,0.08884785729222412,1.0,10.23921206811712,10.225365939559833,-0.9311521454778579,-0.8480753741341092,13149215.0,13149236.0,21.0,23.033571136011442,0.0842227119779838,0.15672753344804988,-1.7359450042094697,2.3249546567621056,10.19480787737878,-0.36081047973316194,0.3958333333333333
176,15574.62661,3.7911424,2,77,2,2,2,1,4,1,-28.36538462,n/a,n/a,13151024.0,13154816.0,0.0,0.0,0.0,13153016.0,13151824.0,13153817.0,13151824.0,13152816.0,13153824.0,13154817.0,3792.0,800.0,992.0,993.0,1993.0,-13153824.0,0.0,0.0,0.0,1.0,0.0,0.0,0.0,1.0038443204036394,10.298058114485611,-0.08653830348307236,-0.2388457176132789,13152991.0,13153046.0,55.0,445.66768861351613,9.295461666776031,9.436551834136798,0.016385870382570812,175.0,0.06129760597180839,0.0,0.0,0.0,0.0,0.0,0.0,0.0,0.0,0.0,0.0,0.0,0.0,0.0,9.83699749035653,0.3019026463073379,0.5833333333333334
177,15587.94988,3.5076963,2,78,2,2,2,2,2,1,-28.36538462,n/a,n/a,13164347.0,13167856.0,0.0,0.0,0.0,13165313.0,13164863.0,13166856.0,13164863.0,13165456.0,13166863.0,13167856.0,3509.0,516.0,593.0,993.0,1993.0,-13166863.0,0.0,0.0,0.0,0.0,0.0,1.0,0.0,0.18346120338411182,10.876133981752536,-0.03807685353255263,-1.484997287769521,13165299.0,13165369.0,70.0,425.3054129513442,10.790126500105252,10.909872902894527,0.13450188067487867,-157.0,0.13749970342702386,0.0,0.0,0.0,0.0,0.0,0.0,0.0,0.0,0.0,0.0,0.0,0.0,0.0,0.0,0.0,0.0
178,15591.46591,3.8911039,2,79,2,1,2,1,2,2,-28.36538462,n/a,n/a,13167863.0,13171755.0,0.0,0.0,0.0,13169779.0,13168763.0,13170755.0,13168763.0,13169356.0,13170762.0,13171755.0,3892.0,900.0,593.0,993.0,1992.0,-13170762.0,0.0,0.0,0.0,1.0,0.0,0.0,0.0,0.0034615321393236813,-8.335369391489529,0.01384612855729079,0.048461449950519736,13169761.0,13169817.0,56.0,326.611246271495,8.338902769150385,8.341164868056898,-3.1374415773914444,405.0,-3.117935797502913,0.0,0.0,0.0,0.0,0.0,0.0,0.0,0.0,0.0,0.0,0.0,0.0,0.0,-10.003975670966913,0.007363479178229481,0.5
179,15595.36535,3.9994294,2,80,2,1,1,2,5,1,-28.36538462,n/a,n/a,13171762.0,13175763.0,0.0,0.0,0.0,13174145.0,13172772.0,13174763.0,13172773.0,13173962.0,13174770.0,13175763.0,4001.0,1011.0,1189.0,993.0,1991.0,-13174770.0,0.0,0.0,0.0,1.0,0.0,0.0,0.0,0.05192298208984342,-9.179983233484318,-0.11769209273697762,-0.8584599705520762,13174130.0,13174188.0,58.0,356.55461350837686,9.26157812804921,9.278830442345768,3.0615242284680395,168.0,3.061673419350394,0.0,0.0,0.0,0.0,0.0,0.0,0.0,0.0,0.0,0.0,0.0,0.0,0.0,-9.654116625878487,-0.6406226885058153,0.6791666666666667
180,15599.37322,3.9994942,2,81,2,1,2,1,4,1,-28.36538462,n/a,n/a,13175770.0,13179771.0,0.0,0.0,0.0,13177546.0,13176780.0,13178772.0,13176780.0,13177771.0,13178778.0,13179771.0,4001.0,1010.0,991.0,993.0,1992.0,-13178778.0,0.0,0.0,0.0,0.0,0.0,1.0,0.0,0.017307660696614473,-8.96882977298562,-0.03807685353255263,-0.3703839389075513,13177529.0,13177577.0,48.0,381.1883206408659,8.992279687377144,9.031290591650642,3.1046295275146276,-242.0,-3.093280315409624,0.0,0.0,0.0,0.0,0.0,0.0,0.0,0.0,0.0,0.0,0.0,0.0,0.0,0.0,0.0,0.0
181,15603.38092,3.8163405,2,82,2,1,1,2,2,2,-28.36538462,n/a,n/a,13179778.0,13183596.0,0.0,0.0,0.0,13181437.0,13180605.0,13182596.0,13180605.0,13181194.0,13182602.0,13183596.0,3818.0,827.0,589.0,994.0,1991.0,-13182602.0,0.0,0.0,0.0,1.0,0.0,0.0,0.0,0.044999917811196055,-10.453827060755142,-0.0692306427864579,0.1903842676627592,13181424.0,13181474.0,50.0,355.63347241782384,10.502036365753067,10.833850732810104,-3.1168696998257857,230.0,-3.099404716737343,1.0,-10.574980685631443,-8.567292044824164,0.12807668915494866,0.1730766069661447,13181708.0,13181737.0,29.0,145.4255527289234,2.0081928869084247,2.0215021690558714,-0.022410040834660496,-0.058253057549436583,-10.170953851577297,0.3166296046637929,0.4083333333333333
182,15615.60427,3.7079367,2,83,2,2,2,1,5,1,-28.36538462,n/a,n/a,13192001.0,13195710.0,0.0,0.0,0.0,13193494.0,13192717.0,13194711.0,13192718.0,13193910.0,13194717.0,13195711.0,3709.0,717.0,1192.0,994.0,1994.0,-13194717.0,0.0,0.0,0.0,0.0,0.0,1.0,0.0,0.0553845142291671,10.090366186126237,-0.006923064278647363,-0.9415367418958288,13193473.0,13193529.0,56.0,510.6594255622693,10.078410583107795,10.052366811492432,0.09286766370629788,-437.0,0.10175876423255122,0.0,0.0,0.0,0.0,0.0,0.0,0.0,0.0,0.0,0.0,0.0,0.0,0.0,0.0,0.0,0.0
183,15619.32038,3.8329102,2,84,2,2,2,2,1,2,-28.36538462,n/a,n/a,13195717.0,13199552.0,0.0,0.0,0.0,13197617.0,13196560.0,13198552.0,13196560.0,13196950.0,13198558.0,13199552.0,3835.0,843.0,390.0,994.0,1992.0,-13198558.0,0.0,0.0,0.0,1.0,0.0,0.0,0.0,0.2769225711458316,10.322288839460873,-0.17999967124479208,-0.3599993424895802,13197597.0,13197660.0,63.0,426.14391229430396,10.046978816850858,10.057442762207156,0.017916759373868524,647.0,0.0320138520456505,0.0,0.0,0.0,0.0,0.0,0.0,0.0,0.0,0.0,0.0,0.0,0.0,0.0,9.964218961297775,0.06627131260404959,0.5166666666666667
184,15623.1615,3.7577772,2,85,2,2,1,2,4,2,-28.36538462,n/a,n/a,13199558.0,13203318.0,0.0,0.0,0.0,13201802.0,13200325.0,13202318.0,13200325.0,13201318.0,13202324.0,13203318.0,3760.0,767.0,993.0,994.0,1993.0,-13202324.0,0.0,0.0,0.0,1.0,0.0,0.0,0.0,0.3634608746289039,10.263442793092382,-0.40153772816145655,-1.484997287769521,13201786.0,13201856.0,70.0,440.09206228054444,9.959092659635713,10.033670526466162,0.10900674096222022,468.0,0.13043134579637639,0.0,0.0,0.0,0.0,0.0,0.0,0.0,0.0,0.0,0.0,0.0,0.0,0.0,10.441299477327446,-0.8173461887832835,0.7291666666666666
185,15626.92764,3.9995843,2,86,2,1,2,1,1,2,-28.36538462,n/a,n/a,13203324.0,13207326.0,0.0,0.0,0.0,13204674.0,13204334.0,13206325.0,13204334.0,13204726.0,13206332.0,13207326.0,4002.0,1010.0,392.0,994.0,1991.0,-13206332.0,0.0,0.0,0.0,0.0,1.0,0.0,0.0,0.0,0.0,0.0,0.0,0.0,0.0,0.0,0.0,0.0,0.0,0.0,0.0,0.0,0.0,0.0,0.0,0.0,0.0,0.0,0.0,0.0,0.0,0.0,0.0,0.0,0.0,0.0,0.0,0.0
186,15630.93548,3.8327479,2,87,2,1,2,1,4,1,-28.36538462,n/a,n/a,13207332.0,13211167.0,0.0,0.0,0.0,13209365.0,13208175.0,13210166.0,13208175.0,13209165.0,13210173.0,13211167.0,3835.0,843.0,990.0,994.0,1991.0,-13210173.0,0.0,0.0,0.0,1.0,0.0,0.0,0.0,0.16615354268749735,-9.169598637066347,-0.1626920105481776,0.0692306427864579,13209339.0,13209424.0,85.0,470.37864586303886,9.338632495119851,9.407049067826334,-3.1167553446611325,174.0,-3.083420248772828,0.0,0.0,0.0,0.0,0.0,0.0,0.0,0.0,0.0,0.0,0.0,0.0,0.0,-10.163002509643471,0.3019026463073379,0.5833333333333334
