,onset,duration,run_number,trial_number,task,ext_mot_pos,ext_mot_ver_dir,staircase_num,fix_off_prct,trial_type,ext_mot_ori,direction_report,response_duration,trial_onset,trial_offset,button_press_onset,button_left,button_right,fix_break,motion_onset,motion_offset,fixation_onset,fixation_offset,response_onset,response_offset,trial_duration,fix_check_duration,fixation_duration,response_duration,motion_duration,reaction_time,miss_time_trial,blink_trial,no_saccade_trial,main_sac_trial,innacurate_sac_trial,early_sac_trial,late_sac_trial,sac_x_onset_trial,sac_x_offset_trial,sac_y_onset_trial,sac_y_offset_trial,sac_t_onset_trial,sac_t_offset_trial,sac_dur_trial,sac_vpeak_trial,sac_dist_trial,sac_amp_trial,sac_dist_ang_trial,sac_lat_trial,sac_amp_ang_trial,cor_sac_trial,cor_sac_x_onset_trial,cor_sac_x_offset_trial,cor_sac_y_onset_trial,cor_sac_y_offset_trial,cor_sac_t_onset_trial,cor_sac_t_offset_trial,cor_sac_dur_trial,cor_sac_vpeak_trial,cor_sac_dist_trial,cor_sac_amp_trial,cor_sac_dist_ang_trial,cor_sac_amp_ang_trial,gabor_sac_onset_x,gabor_sac_onset_y,sac_onset_gabor_path_prct
0,16098.2697,3.8909772,1,1,2,2,1,2,1,2,-38.07692308,n/a,n/a,13674665.0,13678555.0,0.0,0.0,0.0,13675821.0,13675554.0,13677556.0,13675554.0,13675955.0,13677563.0,13678557.0,3890.0,889.0,401.0,994.0,2002.0,-13677563.0,0.0,1.0,0.0,0.0,0.0,0.0,0.0,0.0,0.0,0.0,0.0,0.0,0.0,0.0,0.0,0.0,0.0,0.0,0.0,0.0,0.0,0.0,0.0,0.0,0.0,0.0,0.0,0.0,0.0,0.0,0.0,0.0,0.0,0.0,0.0,0.0
1,16102.17749,3.5078359,1,2,2,1,2,1,5,2,-38.07692308,n/a,n/a,13678573.0,13682081.0,0.0,0.0,0.0,13681079.0,13679089.0,13681078.0,13679090.0,13680279.0,13681088.0,13682081.0,3508.0,517.0,1189.0,993.0,1989.0,-13681088.0,0.0,0.0,0.0,1.0,0.0,0.0,0.0,-0.1903842676627592,-10.38113488582936,-0.21115346049869735,1.2980745522460855,13681061.0,13681134.0,73.0,315.67969058148617,10.30190115251144,10.296580312378182,-2.994563539879507,782.0,-2.993467371622439,0.0,0.0,0.0,0.0,0.0,0.0,0.0,0.0,0.0,0.0,0.0,0.0,0.0,-11.212794435796164,1.5480177233083159,0.9875
2,16105.6935,3.9994086,1,3,2,2,2,2,3,1,-38.07692308,n/a,n/a,13682086.0,13686088.0,0.0,0.0,0.0,13684230.0,13683096.0,13685088.0,13683096.0,13683886.0,13685094.0,13686088.0,4002.0,1010.0,790.0,994.0,1992.0,-13685094.0,0.0,0.0,0.0,1.0,0.0,0.0,0.0,-0.11769209273697762,9.446521208212182,0.12461515701562499,-0.5296144173164012,13684204.0,13684258.0,54.0,335.112247587069,9.586563117300354,9.699967841622732,0.06829751786680732,318.0,0.07179054425242871,0.0,0.0,0.0,0.0,0.0,0.0,0.0,0.0,0.0,0.0,0.0,0.0,0.0,9.8606576605681,0.17785735544393383,0.5541666666666667
3,16109.70126,3.7577841,1,4,2,1,2,2,1,2,-38.07692308,n/a,n/a,13686094.0,13689854.0,0.0,0.0,0.0,13686928.0,13686861.0,13688853.0,13686861.0,13687254.0,13688861.0,13689854.0,3760.0,767.0,393.0,993.0,1992.0,-13688861.0,0.0,1.0,0.0,0.0,0.0,0.0,0.0,0.0,0.0,0.0,0.0,0.0,0.0,0.0,0.0,0.0,0.0,0.0,0.0,0.0,0.0,0.0,0.0,0.0,0.0,0.0,0.0,0.0,0.0,0.0,0.0,0.0,0.0,0.0,0.0,0.0
4,16113.46738,3.6411788,1,5,2,1,2,1,3,2,-38.07692308,n/a,n/a,13689861.0,13693504.0,0.0,0.0,0.0,13690687.0,13690511.0,13692504.0,13690512.0,13691304.0,13692510.0,13693505.0,3643.0,651.0,792.0,995.0,1993.0,-13692510.0,0.0,1.0,0.0,0.0,0.0,0.0,0.0,0.0,0.0,0.0,0.0,0.0,0.0,0.0,0.0,0.0,0.0,0.0,0.0,0.0,0.0,0.0,0.0,0.0,0.0,0.0,0.0,0.0,0.0,0.0,0.0,0.0,0.0,0.0,0.0,0.0
5,16117.12521,3.5078213,1,6,2,2,1,2,5,1,-38.07692308,n/a,n/a,13693520.0,13697027.0,0.0,0.0,0.0,13694293.0,13694037.0,13696028.0,13694037.0,13695228.0,13696035.0,13697028.0,3507.0,517.0,1191.0,993.0,1991.0,-13696035.0,0.0,0.0,0.0,1.0,0.0,1.0,0.0,0.0,10.914210835285084,-0.010384596417967108,0.7753831992083275,13695727.0,13695800.0,73.0,314.14450447202694,10.942459923878987,10.997963113086172,-0.07187092119301415,499.0,0.09456377982953282,0.0,0.0,0.0,0.0,0.0,0.0,0.0,0.0,0.0,0.0,0.0,0.0,0.0,10.86185817352323,-1.100080679968039,0.8458333333333333
6,16120.64137,3.50785,1,7,2,1,1,2,5,2,-38.07692308,n/a,n/a,13697034.0,13700544.0,0.0,0.0,0.0,13697584.0,13697551.0,13699544.0,13697551.0,13698744.0,13699551.0,13700544.0,3510.0,517.0,1193.0,993.0,1993.0,-13699551.0,0.0,1.0,0.0,0.0,0.0,0.0,0.0,0.0,0.0,0.0,0.0,0.0,0.0,0.0,0.0,0.0,0.0,0.0,0.0,0.0,0.0,0.0,0.0,0.0,0.0,0.0,0.0,0.0,0.0,0.0,0.0,0.0,0.0,0.0,0.0,0.0
7,16124.15755,3.507824,1,8,2,1,1,2,1,2,-38.07692308,n/a,n/a,13700550.0,13704060.0,0.0,0.0,0.0,13702194.0,13701067.0,13703060.0,13701067.0,13701460.0,13703067.0,13704060.0,3510.0,517.0,393.0,993.0,1993.0,-13703067.0,0.0,0.0,0.0,1.0,0.0,0.0,0.0,-0.2561533783098934,-10.214981343141861,-0.6057681243815065,-0.3253840210963513,13702177.0,13702228.0,51.0,311.7199971028455,9.962774195900169,9.971681601951982,-3.113445761623545,717.0,3.0981869941034774,1.0,-10.214981343141861,-10.36728875727207,-0.3253840210963513,-0.30461482826041314,13702230.0,13702256.0,26.0,27.788244428790247,0.153716972940813,0.28174830341835305,-3.0060649396042867,2.9562447035940984,-9.8606576605681,-0.17785735544393383,0.5541666666666667
8,16127.6737,3.9994449,1,9,2,1,1,1,1,2,-38.07692308,n/a,n/a,13704067.0,13708068.0,0.0,0.0,0.0,13706033.0,13705077.0,13707067.0,13705077.0,13705466.0,13707075.0,13708068.0,4001.0,1010.0,389.0,993.0,1990.0,-13707075.0,0.0,1.0,0.0,0.0,0.0,0.0,0.0,0.0,0.0,0.0,0.0,0.0,0.0,0.0,0.0,0.0,0.0,0.0,0.0,0.0,0.0,0.0,0.0,0.0,0.0,0.0,0.0,0.0,0.0,0.0,0.0,0.0,0.0,0.0,0.0,0.0
9,16131.68161,3.5078355,1,10,2,1,1,2,1,2,-38.07692308,n/a,n/a,13708075.0,13711584.0,0.0,0.0,0.0,13709401.0,13708591.0,13710584.0,13708591.0,13708984.0,13710591.0,13711585.0,3509.0,516.0,393.0,994.0,1993.0,-13710591.0,0.0,0.0,0.0,1.0,0.0,0.0,0.0,0.024230724975261835,-9.228444683434837,-0.017307660696614473,0.5296144173164012,13709378.0,13709452.0,74.0,282.5445790619674,9.268825490471544,9.264023000614822,-3.082551736910436,394.0,-3.0787776101631454,0.0,0.0,0.0,0.0,0.0,0.0,0.0,0.0,0.0,0.0,0.0,0.0,0.0,-10.2632021967047,0.3359527825052092,0.39166666666666666
10,16135.19778,3.507702,1,11,2,2,2,1,5,2,-38.07692308,n/a,n/a,13711591.0,13715100.0,0.0,0.0,0.0,13713533.0,13712107.0,13714100.0,13712107.0,13713301.0,13714107.0,13715100.0,3509.0,516.0,1194.0,993.0,1993.0,-13714107.0,0.0,0.0,0.0,1.0,0.0,0.0,0.0,0.0553845142291671,7.60844764223172,0.17999967124479208,-0.45346071025129997,13713514.0,13713570.0,56.0,275.88999889306336,7.579580111755326,7.563181569898043,0.08367219857727029,213.0,0.09534223809700175,1.0,0.0553845142291671,7.60844764223172,0.17999967124479208,-0.45346071025129997,13713514.0,13713570.0,56.0,275.88999889306336,7.579580111755326,7.563181569898043,0.08367219857727029,0.09534223809700175,9.489078088749695,0.65214363662776,0.7041666666666667
11,16138.71381,3.7994569,1,12,2,1,1,1,5,2,-38.07692308,n/a,n/a,13715107.0,13718908.0,0.0,0.0,0.0,13715949.0,13715916.0,13717907.0,13715916.0,13717108.0,13717914.0,13718908.0,3801.0,809.0,1192.0,994.0,1991.0,-13717914.0,0.0,1.0,0.0,0.0,0.0,0.0,0.0,0.0,0.0,0.0,0.0,0.0,0.0,0.0,0.0,0.0,0.0,0.0,0.0,0.0,0.0,0.0,0.0,0.0,0.0,0.0,0.0,0.0,0.0,0.0,0.0,0.0,0.0,0.0,0.0,0.0
12,16142.5216,3.5078461,1,13,2,1,2,1,1,2,-38.07692308,n/a,n/a,13718914.0,13722424.0,0.0,0.0,0.0,13719857.0,13719431.0,13721424.0,13719431.0,13719824.0,13721431.0,13722424.0,3510.0,517.0,393.0,993.0,1993.0,-13721431.0,0.0,0.0,0.0,1.0,0.0,0.0,0.0,0.6680757028893171,-7.913062470492138,-0.0692306427864579,-0.28038410328515523,13719833.0,13719878.0,45.0,390.5779140652129,8.583735674783153,8.61474028688034,3.1169909219032412,9.0,3.0579175189223973,1.0,0.6680757028893171,-7.913062470492138,-0.0692306427864579,-0.28038410328515523,13719833.0,13719878.0,45.0,390.5779140652129,8.583735674783153,8.61474028688034,3.1169909219032412,3.0579175189223973,-9.262001683749565,-0.9419852529067635,0.2
13,16146.03776,3.5078435,1,14,2,1,2,2,2,2,-38.07692308,n/a,n/a,13722431.0,13725940.0,0.0,0.0,0.0,13723047.0,13722947.0,13724940.0,13722947.0,13723541.0,13724947.0,13725941.0,3509.0,516.0,594.0,994.0,1993.0,-13724947.0,0.0,1.0,0.0,0.0,0.0,0.0,0.0,0.0,0.0,0.0,0.0,0.0,0.0,0.0,0.0,0.0,0.0,0.0,0.0,0.0,0.0,0.0,0.0,0.0,0.0,0.0,0.0,0.0,0.0,0.0,0.0,0.0,0.0,0.0,0.0,0.0
14,16149.55406,3.5077169,1,15,2,2,2,1,3,2,-38.07692308,n/a,n/a,13725947.0,13729456.0,0.0,0.0,0.0,13727513.0,13726463.0,13728456.0,13726463.0,13727257.0,13728463.0,13729456.0,3509.0,516.0,794.0,993.0,1993.0,-13728463.0,0.0,0.0,0.0,1.0,0.0,0.0,0.0,-0.22499958905598813,9.723443779358014,0.19730733194140657,-0.702691024282546,13727496.0,13727564.0,68.0,336.33119039897707,9.989070151708134,10.022986903418737,0.09022065776296836,239.0,0.10691963369637457,1.0,10.813826403244725,-2.890379336334617,-1.1146133488619736,-0.08653830348307236,13728794.0,13728886.0,92.0,427.9443307977633,13.742714187948835,13.818425894765845,-3.066713967692769,-3.057827331913436,9.953552553522696,0.059285785147979254,0.5166666666666667
15,16153.0701,3.9661011,1,16,2,1,1,1,3,2,-38.07692308,n/a,n/a,13729463.0,13733431.0,0.0,0.0,0.0,13731456.0,13730439.0,13732430.0,13730439.0,13731229.0,13732437.0,13733431.0,3968.0,976.0,790.0,994.0,1991.0,-13732437.0,0.0,1.0,0.0,0.0,0.0,0.0,0.0,0.0,0.0,0.0,0.0,0.0,0.0,0.0,0.0,0.0,0.0,0.0,0.0,0.0,0.0,0.0,0.0,0.0,0.0,0.0,0.0,0.0,0.0,0.0,0.0,0.0,0.0,0.0,0.0,0.0
16,16157.04468,3.5076418,1,17,2,1,2,2,3,2,-38.07692308,n/a,n/a,13733438.0,13736946.0,0.0,0.0,0.0,13734970.0,13733954.0,13735946.0,13733954.0,13734747.0,13735953.0,13736946.0,3508.0,516.0,793.0,993.0,1992.0,-13735953.0,0.0,0.0,0.0,1.0,0.0,0.0,0.0,-0.2699995068671842,-10.194212150305924,-0.27346103900650787,-0.08653830348307236,13734943.0,13735003.0,60.0,363.8489451348053,9.925972833996923,10.073566441910643,-3.122759861222925,196.0,3.082110409435196,0.0,0.0,0.0,0.0,0.0,0.0,0.0,0.0,0.0,0.0,0.0,0.0,0.0,-9.99483917261363,-0.006587309460884834,0.49583333333333335
17,16160.56091,3.507632626,1,18,2,1,1,2,1,2,-38.07692308,n/a,n/a,13736954.0,13740462.0,0.0,0.0,0.0,13738180.0,13737470.0,13739463.0,13737470.0,13737863.0,13739470.0,13740463.0,3508.0,516.0,393.0,993.0,1993.0,-13739470.0,0.0,0.0,0.0,1.0,0.0,0.0,0.0,0.10384596417968683,-9.616136283039,-0.18346120338411182,0.41538385671874734,13738159.0,13738216.0,57.0,318.30205458793733,9.738412103225864,9.750585518128489,-3.080060741656233,296.0,-3.0623430262191014,1.0,0.10384596417968683,-9.616136283039,-0.18346120338411182,0.41538385671874734,13738159.0,13738216.0,57.0,318.30205458793733,9.738412103225864,9.750585518128489,-3.080060741656233,-3.0623430262191014,-10.376740399204767,0.48087359064471097,0.3458333333333333
18,16164.07684,3.5078754,1,19,2,2,2,2,1,1,-38.07692308,n/a,n/a,13740469.0,13743979.0,0.0,0.0,0.0,13741163.0,13740986.0,13742979.0,13740986.0,13741379.0,13742986.0,13743979.0,3510.0,517.0,393.0,993.0,1993.0,-13742986.0,0.0,1.0,0.0,0.0,0.0,0.0,0.0,0.0,0.0,0.0,0.0,0.0,0.0,0.0,0.0,0.0,0.0,0.0,0.0,0.0,0.0,0.0,0.0,0.0,0.0,0.0,0.0,0.0,0.0,0.0,0.0,0.0,0.0,0.0,0.0,0.0
19,16167.59304,3.5078341,1,20,2,2,2,2,5,1,-38.07692308,n/a,n/a,13743986.0,13747495.0,0.0,0.0,0.0,13746179.0,13744502.0,13746495.0,13744502.0,13745696.0,13746502.0,13747495.0,3509.0,516.0,1194.0,993.0,1993.0,-13746502.0,0.0,0.0,0.0,1.0,0.0,0.0,0.0,0.17999967124479208,7.54614006372391,0.1107690284583342,0.32192248895702763,13746147.0,13746222.0,75.0,302.870325640611,7.369166171663724,7.528033423099501,-0.028657565889086547,451.0,0.1915339622695859,1.0,0.17999967124479208,7.54614006372391,0.1107690284583342,0.32192248895702763,13746147.0,13746222.0,75.0,302.870325640611,7.369166171663724,7.528033423099501,-0.028657565889086547,0.1915339622695859,9.200071755113168,1.0210329664373992,0.8208333333333333
20,16171.1092,3.5078345,1,21,2,1,1,2,1,2,-38.07692308,n/a,n/a,13747502.0,13751011.0,0.0,0.0,0.0,13748062.0,13748018.0,13750012.0,13748018.0,13748411.0,13750018.0,13751012.0,3509.0,516.0,393.0,994.0,1994.0,-13750018.0,0.0,1.0,0.0,0.0,0.0,0.0,0.0,0.0,0.0,0.0,0.0,0.0,0.0,0.0,0.0,0.0,0.0,0.0,0.0,0.0,0.0,0.0,0.0,0.0,0.0,0.0,0.0,0.0,0.0,0.0,0.0,0.0,0.0,0.0,0.0,0.0
21,16174.6255,3.5743663,1,22,2,2,2,2,3,2,-38.07692308,n/a,n/a,13751018.0,13754594.0,0.0,0.0,0.0,13752744.0,13751601.0,13753594.0,13751601.0,13752395.0,13753601.0,13754594.0,3576.0,583.0,794.0,993.0,1993.0,-13753601.0,0.0,1.0,0.0,0.0,0.0,0.0,0.0,0.0,0.0,0.0,0.0,0.0,0.0,0.0,0.0,0.0,0.0,0.0,0.0,0.0,0.0,0.0,0.0,0.0,0.0,0.0,0.0,0.0,0.0,0.0,0.0,0.0,0.0,0.0,0.0,0.0
22,16178.20819,3.5078457,1,23,2,1,2,1,5,1,-38.07692308,n/a,n/a,13754601.0,13758111.0,0.0,0.0,0.0,13756684.0,13755117.0,13757110.0,13755117.0,13756310.0,13757117.0,13758111.0,3510.0,516.0,1193.0,994.0,1993.0,-13757117.0,0.0,0.0,0.0,1.0,0.0,0.0,0.0,-0.079615239204425,-9.709597650800719,-0.10038443204036315,0.5746143351276013,13756660.0,13756719.0,59.0,301.5266272532342,9.653609924962383,9.701728577643362,-3.0716136503278904,350.0,-3.0626589289475357,0.0,0.0,0.0,0.0,0.0,0.0,0.0,0.0,0.0,0.0,0.0,0.0,0.0,-10.67606838761403,0.8629375393761258,0.7708333333333334
23,16181.72442,3.6494267,1,24,2,1,2,2,3,1,-38.07692308,n/a,n/a,13758117.0,13761768.0,0.0,0.0,0.0,13759967.0,13758776.0,13760768.0,13758776.0,13759567.0,13760775.0,13761769.0,3651.0,659.0,791.0,994.0,1992.0,-13760775.0,0.0,1.0,0.0,0.0,0.0,0.0,0.0,0.0,0.0,0.0,0.0,0.0,0.0,0.0,0.0,0.0,0.0,0.0,0.0,0.0,0.0,0.0,0.0,0.0,0.0,0.0,0.0,0.0,0.0,0.0,0.0,0.0,0.0,0.0,0.0,0.0
24,16185.3823,3.5076767,1,25,2,1,2,1,3,2,-38.07692308,n/a,n/a,13761775.0,13765284.0,0.0,0.0,0.0,13763500.0,13762291.0,13764284.0,13762291.0,13763085.0,13764291.0,13765284.0,3509.0,516.0,794.0,993.0,1993.0,-13764291.0,0.0,0.0,0.0,1.0,0.0,0.0,0.0,-0.3703839389075513,-10.014212479061133,-0.2423072497526026,0.3426916817929658,13763483.0,13763544.0,61.0,306.3895936975306,9.661555395576336,9.66418238980011,-3.081006448537463,398.0,-3.08245823422381,0.0,0.0,0.0,0.0,0.0,0.0,0.0,0.0,0.0,0.0,0.0,0.0,0.0,-10.24255888715923,0.309603544661662,0.5958333333333333
25,16188.89848,3.5077158,1,26,2,2,2,2,3,2,-38.07692308,n/a,n/a,13765291.0,13768800.0,0.0,0.0,0.0,13767017.0,13765807.0,13767800.0,13765807.0,13766601.0,13767807.0,13768800.0,3509.0,516.0,794.0,993.0,1993.0,-13767807.0,0.0,0.0,0.0,1.0,0.0,0.0,0.0,-0.3426916817929658,10.453827060755142,-0.4119223245794236,-2.118457669265613,13766992.0,13767058.0,66.0,274.2128037188353,10.930557160586817,10.896910321968244,0.15676651313462753,391.0,0.1575762297197688,0.0,0.0,0.0,0.0,0.0,0.0,0.0,0.0,0.0,0.0,0.0,0.0,0.0,9.767762767613501,0.2964289257398923,0.5916666666666667
26,16192.41461,3.5077557,1,27,2,2,2,2,1,2,-38.07692308,n/a,n/a,13768807.0,13772316.0,0.0,0.0,0.0,13770233.0,13769324.0,13771317.0,13769324.0,13769716.0,13771323.0,13772316.0,3509.0,517.0,392.0,993.0,1993.0,-13771323.0,0.0,0.0,0.0,1.0,0.0,0.0,0.0,-0.22499958905598813,10.287673518067644,-0.07615370706510526,-1.903842676627592,13770212.0,13770286.0,74.0,296.1543666879019,10.67036751132316,10.693623004600434,0.17213523040337908,496.0,0.17701613516083434,1.0,-0.22499958905598813,10.287673518067644,-0.07615370706510526,-1.903842676627592,13770212.0,13770286.0,74.0,296.1543666879019,10.67036751132316,10.693623004600434,0.17213523040337908,0.17701613516083434,10.129020684659164,-0.16468273652216023,0.44583333333333336
27,16195.93068,3.9994487,1,28,2,1,2,1,5,1,-38.07692308,n/a,n/a,13772323.0,13776324.0,0.0,0.0,0.0,13773899.0,13773333.0,13775325.0,13773333.0,13774524.0,13775331.0,13776324.0,4001.0,1010.0,1191.0,993.0,1992.0,-13775331.0,0.0,0.0,0.0,0.0,0.0,1.0,0.0,-0.4292299852760381,-9.6611362008502,-0.498460628062496,-1.5542279305559787,13773873.0,13773946.0,73.0,326.6377409609979,9.292079259787402,9.286875285047755,3.0277266232875464,-651.0,3.0197804182415298,0.0,0.0,0.0,0.0,0.0,0.0,0.0,0.0,0.0,0.0,0.0,0.0,0.0,0.0,0.0,0.0
28,16199.93866,3.5075993,1,29,2,1,2,2,2,2,-38.07692308,n/a,n/a,13776331.0,13779840.0,0.0,0.0,0.0,13777814.0,13776847.0,13778841.0,13776847.0,13777441.0,13778847.0,13779841.0,3509.0,516.0,594.0,994.0,1994.0,-13778847.0,0.0,0.0,0.0,1.0,0.0,0.0,0.0,-0.2526918461705697,-10.336134968018163,-0.28384563542447894,0.02769225711458158,13777796.0,13777868.0,72.0,399.82402796345974,10.088254608703293,10.088786701357135,-3.1107064951496013,355.0,-3.06500496799673,1.0,-0.2526918461705697,-10.336134968018163,-0.28384563542447894,0.02769225711458158,13777796.0,13777868.0,72.0,399.82402796345974,10.088254608703293,10.088786701357135,-3.1107064951496013,-3.06500496799673,-9.943230898749965,-0.07246040406975286,0.475
29,16203.45458,3.8661861,1,30,2,1,1,2,4,2,-38.07692308,n/a,n/a,13779847.0,13783715.0,0.0,0.0,0.0,13782080.0,13780723.0,13782715.0,13780723.0,13781713.0,13782722.0,13783715.0,3868.0,876.0,990.0,993.0,1992.0,-13782722.0,0.0,1.0,0.0,0.0,0.0,0.0,0.0,0.0,0.0,0.0,0.0,0.0,0.0,0.0,0.0,0.0,0.0,0.0,0.0,0.0,0.0,0.0,0.0,0.0,0.0,0.0,0.0,0.0,0.0,0.0,0.0,0.0,0.0,0.0,0.0,0.0
30,16207.32906,3.5078286,1,31,2,2,1,2,5,2,-38.07692308,n/a,n/a,13783721.0,13787231.0,0.0,0.0,0.0,13784405.0,13784238.0,13786231.0,13784238.0,13785432.0,13786238.0,13787231.0,3510.0,517.0,1194.0,993.0,1993.0,-13786238.0,0.0,1.0,0.0,0.0,0.0,0.0,0.0,0.0,0.0,0.0,0.0,0.0,0.0,0.0,0.0,0.0,0.0,0.0,0.0,0.0,0.0,0.0,0.0,0.0,0.0,0.0,0.0,0.0,0.0,0.0,0.0,0.0,0.0,0.0,0.0,0.0
31,16210.84522,3.5078403,1,32,2,2,2,1,4,1,-38.07692308,n/a,n/a,13787238.0,13790747.0,0.0,0.0,0.0,13789387.0,13787754.0,13789747.0,13787754.0,13788747.0,13789754.0,13790747.0,3509.0,516.0,993.0,993.0,1993.0,-13789754.0,0.0,0.0,0.0,1.0,0.0,0.0,0.0,-0.5607682065703105,9.387675161843692,-0.4084607924401,-0.8411523098554617,13789362.0,13789431.0,69.0,331.0190345340225,9.957848532880169,9.981797143287766,0.04346599497327127,615.0,0.07741022300923943,0.0,0.0,0.0,0.0,0.0,0.0,0.0,0.0,0.0,0.0,0.0,0.0,0.0,9.2413583742041,0.9683344907503068,0.8041666666666667
32,16214.36139,3.9994998,1,33,2,2,1,2,3,2,-38.07692308,n/a,n/a,13790754.0,13794755.0,0.0,0.0,0.0,13793020.0,13791764.0,13793755.0,13791764.0,13792553.0,13793762.0,13794756.0,4001.0,1010.0,789.0,994.0,1991.0,-13793762.0,0.0,1.0,0.0,0.0,0.0,0.0,0.0,0.0,0.0,0.0,0.0,0.0,0.0,0.0,0.0,0.0,0.0,0.0,0.0,0.0,0.0,0.0,0.0,0.0,0.0,0.0,0.0,0.0,0.0,0.0,0.0,0.0,0.0,0.0,0.0,0.0
33,16218.36918,3.6828011,1,34,2,2,1,1,1,1,-38.07692308,n/a,n/a,13794762.0,13798445.0,0.0,0.0,0.0,13796271.0,13795455.0,13797446.0,13795455.0,13795845.0,13797453.0,13798445.0,3683.0,693.0,390.0,992.0,1991.0,-13797453.0,0.0,1.0,0.0,0.0,0.0,0.0,0.0,0.0,0.0,0.0,0.0,0.0,0.0,0.0,0.0,0.0,0.0,0.0,0.0,0.0,0.0,0.0,0.0,0.0,0.0,0.0,0.0,0.0,0.0,0.0,0.0,0.0,0.0,0.0,0.0,0.0
34,16222.06029,3.5078501,1,35,2,1,2,1,5,1,-38.07692308,n/a,n/a,13798453.0,13801962.0,0.0,0.0,0.0,13800578.0,13798969.0,13800962.0,13798969.0,13800163.0,13800969.0,13801962.0,3509.0,516.0,1194.0,993.0,1993.0,-13800969.0,0.0,0.0,0.0,1.0,0.0,0.0,0.0,-0.24923031403124998,-7.44921716382287,-0.5399990137343723,-0.062307578507810525,13800558.0,13800611.0,53.0,249.44656597130827,7.215815944469556,7.275267710957349,-3.0753435912135663,395.0,-3.0271523483197296,1.0,-7.539216999445262,-33.26532385889301,0.21461499263802103,18.726888873736858,13801494.0,13801537.0,43.0,22680.954153460396,31.694429453652244,113.21036266392507,-2.517839043002568,-2.8307586327585708,-10.737998316250431,0.9419852529067635,0.7958333333333333
35,16225.57648,3.5078263,1,36,2,2,2,2,2,1,-38.07692308,n/a,n/a,13801969.0,13805478.0,0.0,0.0,0.0,13803528.0,13802485.0,13804479.0,13802485.0,13803078.0,13804485.0,13805478.0,3509.0,516.0,593.0,993.0,1994.0,-13804485.0,0.0,0.0,0.0,1.0,0.0,0.0,0.0,-0.2596149104492171,9.789212890005144,-0.48115296736588153,-1.7169199411041565,13803509.0,13803584.0,75.0,304.9293506242835,10.124527652022422,10.197235400288248,0.12236186712369819,431.0,0.13517608043274745,0.0,0.0,0.0,0.0,0.0,0.0,0.0,0.0,0.0,0.0,0.0,0.0,0.0,9.963874208295431,0.04611116622620565,0.5125
36,16229.09265,3.5078507,1,37,2,2,2,1,4,1,-38.07692308,n/a,n/a,13805485.0,13808994.0,0.0,0.0,0.0,13806161.0,13806001.0,13807995.0,13806001.0,13806994.0,13808001.0,13808995.0,3509.0,516.0,993.0,994.0,1994.0,-13808001.0,0.0,1.0,0.0,0.0,0.0,0.0,0.0,0.0,0.0,0.0,0.0,0.0,0.0,0.0,0.0,0.0,0.0,0.0,0.0,0.0,0.0,0.0,0.0,0.0,0.0,0.0,0.0,0.0,0.0,0.0,0.0,0.0,0.0,0.0,0.0,0.0
37,16232.60882,3.5077916,1,38,2,1,2,2,2,1,-38.07692308,n/a,n/a,13809001.0,13812511.0,0.0,0.0,0.0,13810567.0,13809518.0,13811510.0,13809518.0,13810111.0,13811517.0,13812511.0,3510.0,517.0,593.0,994.0,1992.0,-13811517.0,0.0,0.0,0.0,1.0,0.0,0.0,0.0,-0.4465376459726526,-9.809982082841081,-0.6334603814960881,-0.18346120338411182,13810548.0,13810606.0,58.0,437.43474153533015,9.374251489192288,9.500442813002978,-3.0935704531249066,437.0,-3.034999305750793,1.0,-0.4465376459726526,-9.809982082841081,-0.6334603814960881,-0.18346120338411182,13810548.0,13810606.0,58.0,437.43474153533015,9.374251489192288,9.500442813002978,-3.0935704531249066,-3.034999305750793,-10.046447446477297,0.059285785147979254,0.5166666666666667
38,16236.12499,3.5078135,1,39,2,1,2,1,1,2,-38.07692308,n/a,n/a,13812517.0,13816027.0,0.0,0.0,0.0,13813860.0,13813034.0,13815026.0,13813034.0,13813427.0,13815033.0,13816027.0,3510.0,517.0,393.0,994.0,1992.0,-13815033.0,0.0,0.0,0.0,1.0,0.0,0.0,0.0,-0.5296144173164012,-9.993443286225197,-0.49153756378385255,-0.3426916817929658,13813834.0,13813898.0,64.0,420.07094579744137,9.464999310965489,9.716113757641496,-3.1258660789929564,407.0,-3.049545804726386,0.0,0.0,0.0,0.0,0.0,0.0,0.0,0.0,0.0,0.0,0.0,0.0,0.0,-9.757441112840768,-0.309603544661662,0.4
39,16239.64114,3.5078367,1,40,2,2,2,1,4,2,-38.07692308,n/a,n/a,13816033.0,13819542.0,0.0,0.0,0.0,13818076.0,13816550.0,13818543.0,13816550.0,13817543.0,13818550.0,13819542.0,3509.0,517.0,993.0,992.0,1993.0,-13818550.0,0.0,0.0,0.0,0.0,1.0,0.0,0.0,0.0,0.0,0.0,0.0,0.0,0.0,0.0,0.0,0.0,0.0,0.0,0.0,0.0,0.0,0.0,0.0,0.0,0.0,0.0,0.0,0.0,0.0,0.0,0.0,0.0,0.0,0.0,0.0,0.0
40,16243.15731,3.5911728,1,41,2,2,1,1,4,1,-38.07692308,n/a,n/a,13819549.0,13823143.0,0.0,0.0,0.0,13821866.0,13820149.0,13822143.0,13820149.0,13821142.0,13822149.0,13823143.0,3594.0,600.0,993.0,994.0,1994.0,-13822149.0,0.0,0.0,0.0,0.0,1.0,0.0,0.0,0.0,0.0,0.0,0.0,0.0,0.0,0.0,0.0,0.0,0.0,0.0,0.0,0.0,0.0,0.0,0.0,0.0,0.0,0.0,0.0,0.0,0.0,0.0,0.0,0.0,0.0,0.0,0.0,0.0
41,16246.75682,3.7661016,1,42,2,2,2,1,2,2,-38.07692308,n/a,n/a,13823149.0,13826917.0,0.0,0.0,0.0,13825015.0,13823925.0,13825917.0,13823925.0,13824515.0,13825923.0,13826917.0,3768.0,776.0,590.0,994.0,1992.0,-13825923.0,0.0,1.0,0.0,0.0,0.0,0.0,0.0,0.0,0.0,0.0,0.0,0.0,0.0,0.0,0.0,0.0,0.0,0.0,0.0,0.0,0.0,0.0,0.0,0.0,0.0,0.0,0.0,0.0,0.0,0.0,0.0,0.0,0.0,0.0,0.0,0.0
42,16250.53124,3.9994573,1,43,2,1,2,1,3,2,-38.07692308,n/a,n/a,13826923.0,13830925.0,0.0,0.0,0.0,13829383.0,13827933.0,13829924.0,13827933.0,13828723.0,13829931.0,13830925.0,4002.0,1010.0,790.0,994.0,1991.0,-13829931.0,0.0,1.0,0.0,0.0,0.0,0.0,0.0,0.0,0.0,0.0,0.0,0.0,0.0,0.0,0.0,0.0,0.0,0.0,0.0,0.0,0.0,0.0,0.0,0.0,0.0,0.0,0.0,0.0,0.0,0.0,0.0,0.0,0.0,0.0,0.0,0.0
43,16254.53902,3.5328422,1,44,2,1,1,2,3,1,-38.07692308,n/a,n/a,13830931.0,13834465.0,0.0,0.0,0.0,13832697.0,13831474.0,13833466.0,13831475.0,13832264.0,13833472.0,13834465.0,3534.0,544.0,789.0,993.0,1992.0,-13833472.0,0.0,0.0,0.0,1.0,0.0,0.0,0.0,-0.3911531317434855,-10.571519153492119,-0.7199986849791604,-0.1384612855729158,13832682.0,13832731.0,49.0,382.2869212065876,10.19696219879638,10.174333329632958,-3.0845312377046215,418.0,-3.0540437990136025,1.0,-33.26532385889301,-0.2284611211953118,18.726888873736858,0.22499958905598813,13833857.0,13833891.0,34.0,24953.270081823866,37.864946938455724,81.10577262712584,0.5105170364622804,0.42687827637777426,-9.736797803295298,-0.3359527825052092,0.6041666666666666
44,16258.08019,3.5078433,1,45,2,1,2,2,2,1,-38.07692308,n/a,n/a,13834472.0,13837981.0,0.0,0.0,0.0,13835998.0,13834989.0,13836982.0,13834989.0,13835581.0,13836989.0,13837981.0,3509.0,517.0,592.0,992.0,1993.0,-13836989.0,0.0,0.0,0.0,1.0,0.0,0.0,0.0,-0.3634608746289039,-8.916906790895776,-0.4223069209973947,-0.2526918461705697,13835978.0,13836024.0,46.0,353.82303616694657,8.5551274868415,8.60448745746018,-3.121765223902259,397.0,-3.0679062199770604,0.0,0.0,0.0,0.0,0.0,0.0,0.0,0.0,0.0,0.0,0.0,0.0,0.0,-9.99483917261363,-0.006587309460884834,0.49583333333333335
45,16261.59637,3.6578269,1,46,2,2,1,1,4,2,-38.07692308,n/a,n/a,13837988.0,13841648.0,0.0,0.0,0.0,13838865.0,13838655.0,13840648.0,13838655.0,13839647.0,13840655.0,13841648.0,3660.0,667.0,992.0,993.0,1993.0,-13840655.0,0.0,1.0,0.0,0.0,0.0,0.0,0.0,0.0,0.0,0.0,0.0,0.0,0.0,0.0,0.0,0.0,0.0,0.0,0.0,0.0,0.0,0.0,0.0,0.0,0.0,0.0,0.0,0.0,0.0,0.0,0.0,0.0,0.0,0.0,0.0,0.0
46,16265.2625,3.6744699,1,47,2,1,1,1,3,1,-38.07692308,n/a,n/a,13841654.0,13845331.0,0.0,0.0,0.0,13843688.0,13842338.0,13844330.0,13842338.0,13843131.0,13844337.0,13845331.0,3677.0,684.0,793.0,994.0,1992.0,-13844337.0,0.0,1.0,0.0,0.0,0.0,0.0,0.0,0.0,0.0,0.0,0.0,0.0,0.0,0.0,0.0,0.0,0.0,0.0,0.0,0.0,0.0,0.0,0.0,0.0,0.0,0.0,0.0,0.0,0.0,0.0,0.0,0.0,0.0,0.0,0.0,0.0
47,16268.94534,3.9994219,1,48,2,2,1,1,4,2,-38.07692308,n/a,n/a,13845337.0,13849338.0,0.0,0.0,0.0,13847854.0,13846347.0,13848338.0,13846347.0,13847337.0,13848345.0,13849338.0,4001.0,1010.0,990.0,993.0,1991.0,-13848345.0,0.0,1.0,0.0,0.0,0.0,0.0,0.0,0.0,0.0,0.0,0.0,0.0,0.0,0.0,0.0,0.0,0.0,0.0,0.0,0.0,0.0,0.0,0.0,0.0,0.0,0.0,0.0,0.0,0.0,0.0,0.0,0.0,0.0,0.0,0.0,0.0
48,16272.95315,3.5078631,1,49,2,2,2,1,1,1,-38.07692308,n/a,n/a,13849345.0,13852854.0,0.0,0.0,0.0,13850828.0,13849862.0,13851855.0,13849862.0,13850254.0,13851861.0,13852854.0,3509.0,517.0,392.0,993.0,1993.0,-13851861.0,0.0,0.0,0.0,1.0,0.0,0.0,0.0,-0.33576861751432235,9.83075127567702,-0.4742299030872381,-1.0626903667721301,13850806.0,13850876.0,70.0,286.0771270973882,10.183536343332582,10.203284497436506,0.057817680513052035,552.0,0.08491617790300383,1.0,-0.33576861751432235,9.83075127567702,-0.4742299030872381,-1.0626903667721301,13850806.0,13850876.0,70.0,286.0771270973882,10.183536343332582,10.203284497436506,0.057817680513052035,0.08491617790300383,10.067090756022763,-0.08563502299152252,0.4708333333333333
49,16276.46935,3.5077525,1,50,2,1,1,2,2,2,-38.07692308,n/a,n/a,13852861.0,13856370.0,0.0,0.0,0.0,13854370.0,13853378.0,13855371.0,13853378.0,13853971.0,13855377.0,13856371.0,3509.0,517.0,593.0,994.0,1993.0,-13855377.0,0.0,0.0,0.0,1.0,0.0,0.0,0.0,-0.46730683880859075,-9.882674257766864,-0.9865366597070249,0.1903842676627592,13854350.0,13854416.0,66.0,245.0397767816452,9.488639865821757,9.505814117035074,-3.017237659043032,379.0,-3.017463494630882,0.0,0.0,0.0,0.0,0.0,0.0,0.0,0.0,0.0,0.0,0.0,0.0,0.0,-10.025804136931832,0.032936547304432046,0.4875
50,16279.98547,3.6911735,1,51,2,1,2,1,3,1,-38.07692308,n/a,n/a,13856377.0,13860070.0,0.0,0.0,0.0,13858594.0,13857077.0,13859070.0,13857077.0,13857871.0,13859077.0,13860070.0,3693.0,700.0,794.0,993.0,1993.0,-13859077.0,0.0,0.0,0.0,1.0,0.0,0.0,0.0,-0.27346103900650787,-9.917289579160093,-0.9726905311497341,-0.33576861751432235,13858568.0,13858659.0,91.0,263.39633860326234,9.66483825192899,9.964541403308989,-3.075643920811126,697.0,-3.064048109075429,0.0,0.0,0.0,0.0,0.0,0.0,0.0,0.0,0.0,0.0,0.0,0.0,0.0,-10.61413845897763,0.7838898258454882,0.7458333333333333
51,16283.68508,3.5077154,1,52,2,1,1,2,4,1,-38.07692308,n/a,n/a,13860077.0,13863586.0,0.0,0.0,0.0,13861977.0,13860593.0,13862586.0,13860593.0,13861587.0,13862593.0,13863586.0,3509.0,516.0,994.0,993.0,1993.0,-13862593.0,0.0,0.0,0.0,1.0,0.0,0.0,0.0,-0.8446138419947854,-10.152673764634047,-0.9692289990104104,-0.4846144995052052,13861957.0,13862023.0,66.0,280.9616176301566,9.32066686115183,9.378322962625079,-3.089575655434621,370.0,-3.0543746909757816,1.0,-10.128443039658789,-10.111135378962175,-0.4361530495546855,-0.46384530666926704,13862037.0,13862060.0,23.0,100.19194014313038,0.032656028890378386,0.35260084586149465,1.0121970114513086,-0.8131687999908678,-9.540686362613364,-0.5862705420188958,0.6833333333333333
52,16287.20109,3.507852,1,53,2,2,2,1,3,1,-38.07692308,n/a,n/a,13863593.0,13867102.0,0.0,0.0,0.0,13865286.0,13864110.0,13866103.0,13864110.0,13864902.0,13866110.0,13867102.0,3509.0,517.0,792.0,992.0,1993.0,-13866110.0,0.0,0.0,0.0,1.0,0.0,0.0,0.0,-0.4396145816940092,9.96228949697129,-0.7753831992083275,-1.619997041203113,13865269.0,13865343.0,74.0,296.9047232349546,10.436138222726017,10.510935928696247,0.0810202566642911,367.0,0.08705216261044965,1.0,8.498061402037706,-33.26532385889301,-2.0769192835937367,18.726888873736858,13866086.0,13866171.0,85.0,13645.783182333807,46.6581052154922,47.66710357928367,-2.679438075994523,-2.6386062755518958,9.798727731931699,0.2569050689745715,0.5791666666666667
53,16290.71735,3.6744224,1,54,2,2,1,1,3,2,-38.07692308,n/a,n/a,13867109.0,13870785.0,0.0,0.0,0.0,13867852.0,13867792.0,13869785.0,13867792.0,13868586.0,13869792.0,13870786.0,3676.0,683.0,794.0,994.0,1993.0,-13869792.0,0.0,1.0,0.0,0.0,0.0,0.0,0.0,0.0,0.0,0.0,0.0,0.0,0.0,0.0,0.0,0.0,0.0,0.0,0.0,0.0,0.0,0.0,0.0,0.0,0.0,0.0,0.0,0.0,0.0,0.0,0.0,0.0,0.0,0.0,0.0,0.0
54,16294.40011,3.5244967,1,55,2,1,1,2,2,1,-38.07692308,n/a,n/a,13870792.0,13874318.0,0.0,0.0,0.0,13872268.0,13871325.0,13873318.0,13871325.0,13871918.0,13873325.0,13874318.0,3526.0,533.0,593.0,993.0,1993.0,-13873325.0,0.0,1.0,0.0,0.0,0.0,0.0,0.0,0.0,0.0,0.0,0.0,0.0,0.0,0.0,0.0,0.0,0.0,0.0,0.0,0.0,0.0,0.0,0.0,0.0,0.0,0.0,0.0,0.0,0.0,0.0,0.0,0.0,0.0,0.0,0.0,0.0
55,16297.93309,3.5076875,1,56,2,2,2,2,1,1,-38.07692308,n/a,n/a,13874325.0,13877834.0,0.0,0.0,0.0,13876434.0,13874841.0,13876835.0,13874841.0,13875234.0,13876841.0,13877834.0,3509.0,516.0,393.0,993.0,1994.0,-13876841.0,0.0,0.0,0.0,0.0,0.0,0.0,1.0,-0.5330759494557249,11.011133735186124,-0.6749987671679644,-1.280766891549471,13876416.0,13876487.0,71.0,325.8138714072638,11.560092225561842,11.64492441872083,0.05242568043502991,1182.0,0.0812404220125051,0.0,0.0,0.0,0.0,0.0,0.0,0.0,0.0,0.0,0.0,0.0,0.0,0.0,0.0,0.0,0.0
56,16301.44911,3.4994929,1,57,2,1,1,1,3,1,-38.07692308,n/a,n/a,13877841.0,13881342.0,0.0,0.0,0.0,13879724.0,13878351.0,13880343.0,13878351.0,13879141.0,13880349.0,13881342.0,3501.0,510.0,790.0,993.0,1992.0,-13880349.0,0.0,0.0,0.0,1.0,0.0,0.0,0.0,-0.2526918461705697,-10.04536626831504,-0.872306099109371,-0.7684601349296841,13879704.0,13879763.0,59.0,304.7218896702597,9.793225021533965,9.878614762420696,-3.1309885971983293,563.0,-3.0970763095907667,1.0,-0.2526918461705697,-10.04536626831504,-0.872306099109371,-0.7684601349296841,13879704.0,13879763.0,59.0,304.7218896702597,9.793225021533965,9.878614762420696,-3.1309885971983293,-3.0970763095907667,-9.56132967215883,-0.5599213041753487,0.675
57,16304.95693,3.7161342,1,58,2,1,2,2,1,2,-38.07692308,n/a,n/a,13881348.0,13885066.0,0.0,0.0,0.0,13882925.0,13882075.0,13884067.0,13882075.0,13882465.0,13884073.0,13885067.0,3718.0,727.0,390.0,994.0,1992.0,-13884073.0,0.0,0.0,0.0,1.0,0.0,0.0,0.0,-0.22153805691666445,-8.98267590154291,-0.19730733194140657,-0.1349997534335921,13882906.0,13882969.0,63.0,309.951054956781,8.761359401764189,8.882666483384343,-3.134480959973886,441.0,-3.1010532537970867,0.0,0.0,0.0,0.0,0.0,0.0,0.0,0.0,0.0,0.0,0.0,0.0,0.0,-9.798727731931699,-0.2569050689745715,0.4166666666666667
58,16308.6814,3.5078353,1,59,2,1,1,2,3,1,-38.07692308,n/a,n/a,13885073.0,13888583.0,0.0,0.0,0.0,13887066.0,13885590.0,13887582.0,13885590.0,13886383.0,13887589.0,13888583.0,3510.0,517.0,793.0,994.0,1992.0,-13887589.0,0.0,0.0,0.0,1.0,0.0,0.0,0.0,-0.623075785078121,-9.643828540153585,-0.5953835279635394,-0.5503836101523394,13887046.0,13887099.0,53.0,316.7349195817857,9.020864995154543,9.109990416767772,-3.136604206864332,663.0,-3.08799107935998,0.0,0.0,0.0,0.0,0.0,0.0,0.0,0.0,0.0,0.0,0.0,0.0,0.0,-9.427148160113298,-0.7311913501583976,0.7291666666666666
59,16312.19771,3.9994269,1,60,2,2,2,1,3,1,-38.07692308,n/a,n/a,13888589.0,13892591.0,0.0,0.0,0.0,13891149.0,13889599.0,13891590.0,13889600.0,13890389.0,13891597.0,13892591.0,4002.0,1011.0,789.0,994.0,1991.0,-13891597.0,0.0,1.0,0.0,0.0,0.0,0.0,0.0,0.0,0.0,0.0,0.0,0.0,0.0,0.0,0.0,0.0,0.0,0.0,0.0,0.0,0.0,0.0,0.0,0.0,0.0,0.0,0.0,0.0,0.0,0.0,0.0,0.0,0.0,0.0,0.0,0.0
60,16316.21385,3.657636,1,61,2,2,1,1,2,2,-38.07692308,n/a,n/a,13892607.0,13896265.0,0.0,0.0,0.0,13894457.0,13893274.0,13895265.0,13893274.0,13893863.0,13895272.0,13896265.0,3658.0,667.0,589.0,993.0,1991.0,-13895272.0,0.0,1.0,0.0,0.0,0.0,0.0,0.0,0.0,0.0,0.0,0.0,0.0,0.0,0.0,0.0,0.0,0.0,0.0,0.0,0.0,0.0,0.0,0.0,0.0,0.0,0.0,0.0,0.0,0.0,0.0,0.0,0.0,0.0,0.0,0.0,0.0
61,16319.87996,3.6826766,1,62,2,2,2,2,5,2,-38.07692308,n/a,n/a,13896272.0,13899955.0,0.0,0.0,0.0,13898548.0,13896965.0,13898956.0,13896965.0,13898154.0,13898963.0,13899955.0,3683.0,693.0,1189.0,992.0,1991.0,-13898963.0,0.0,1.0,0.0,0.0,0.0,0.0,0.0,0.0,0.0,0.0,0.0,0.0,0.0,0.0,0.0,0.0,0.0,0.0,0.0,0.0,0.0,0.0,0.0,0.0,0.0,0.0,0.0,0.0,0.0,0.0,0.0,0.0,0.0,0.0,0.0,0.0
62,16323.57111,3.5076953,1,63,2,1,2,1,5,2,-38.07692308,n/a,n/a,13899963.0,13903472.0,0.0,0.0,0.0,13900506.0,13900479.0,13902472.0,13900479.0,13901672.0,13902479.0,13903472.0,3509.0,516.0,1193.0,993.0,1993.0,-13902479.0,0.0,1.0,0.0,0.0,0.0,0.0,0.0,0.0,0.0,0.0,0.0,0.0,0.0,0.0,0.0,0.0,0.0,0.0,0.0,0.0,0.0,0.0,0.0,0.0,0.0,0.0,0.0,0.0,0.0,0.0,0.0,0.0,0.0,0.0,0.0,0.0
63,16327.08728,3.5077148,1,64,2,1,2,2,4,1,-38.07692308,n/a,n/a,13903479.0,13906988.0,0.0,0.0,0.0,13905345.0,13903995.0,13905988.0,13903995.0,13904989.0,13905995.0,13906988.0,3509.0,516.0,994.0,993.0,1993.0,-13905995.0,0.0,0.0,0.0,1.0,0.0,0.0,0.0,-0.4846144995052052,-11.499209766830656,-0.747690942093746,-0.4361530495546855,13905324.0,13905396.0,72.0,262.55530489948114,11.019000170681364,11.065385641372897,-3.113316094253822,335.0,-3.0598542732477663,1.0,-0.4846144995052052,-11.499209766830656,-0.747690942093746,-0.4361530495546855,13905324.0,13905396.0,72.0,262.55530489948114,11.019000170681364,11.065385641372897,-3.113316094253822,-3.0598542732477663,-10.407705363522966,0.5203974474100279,0.6625
64,16330.60338,3.5077768,1,65,2,2,2,1,2,1,-38.07692308,n/a,n/a,13906995.0,13910504.0,0.0,0.0,0.0,13907611.0,13907511.0,13909505.0,13907511.0,13908104.0,13909512.0,13910504.0,3509.0,516.0,593.0,992.0,1994.0,-13909512.0,0.0,1.0,0.0,0.0,0.0,0.0,0.0,0.0,0.0,0.0,0.0,0.0,0.0,0.0,0.0,0.0,0.0,0.0,0.0,0.0,0.0,0.0,0.0,0.0,0.0,0.0,0.0,0.0,0.0,0.0,0.0,0.0,0.0,0.0,0.0,0.0
65,16334.11949,3.5078366,1,66,2,1,2,2,5,2,-38.07692308,n/a,n/a,13910511.0,13914020.0,0.0,0.0,0.0,13912444.0,13911028.0,13913021.0,13911028.0,13912220.0,13913028.0,13914021.0,3509.0,517.0,1192.0,993.0,1993.0,-13913028.0,0.0,0.0,0.0,1.0,0.0,0.0,0.0,-0.6334603814960881,-11.284594774192636,-0.35653781035025656,0.22499958905598813,13912431.0,13912504.0,73.0,342.70916383260567,10.66699815309778,10.699287312768655,-3.0870481747673835,211.0,-3.070031633269748,1.0,-2.69307200439321,-0.9380752097565052,0.16961507482682103,-0.24923031403124998,13913775.0,13913801.0,26.0,141.98026376720227,1.804285234920681,1.826285461209918,0.23427641935373272,-0.2100342920512941,-10.500600256477563,0.6389690177059864,0.7
66,16337.63566,3.5078114,1,67,2,1,1,2,1,2,-38.07692308,n/a,n/a,13914027.0,13917537.0,0.0,0.0,0.0,13915344.0,13914544.0,13916536.0,13914544.0,13914937.0,13916543.0,13917537.0,3510.0,517.0,393.0,994.0,1992.0,-13916543.0,0.0,0.0,0.0,1.0,0.0,0.0,0.0,-0.3080763603997368,-10.433057867919203,-0.8342292455768183,0.03461532139322895,13915322.0,13915376.0,54.0,314.61351697356116,10.162191762073991,10.21078640921246,-3.0559903930357772,385.0,-3.041418013622838,1.0,-10.48844238214837,-33.26532385889301,1.1803824595091077,18.726888873736858,13916064.0,13916144.0,80.0,33973.97567217282,28.751803719944405,107.82541113861285,-2.4851849963447528,-2.7534913801545735,-10.27352385147743,0.3491274014269828,0.3875
67,16341.15178,3.5078944,1,68,2,2,2,2,1,1,-38.07692308,n/a,n/a,13917543.0,13921053.0,0.0,0.0,0.0,13918853.0,13918060.0,13920053.0,13918060.0,13918453.0,13920060.0,13921053.0,3510.0,517.0,393.0,993.0,1993.0,-13920060.0,0.0,0.0,0.0,1.0,0.0,0.0,0.0,-0.4465376459726526,9.287290729803324,-0.5988450601028592,-1.5576894626953024,13918825.0,13918911.0,86.0,261.77578538364247,9.7809405190628,9.87498678772265,0.09818962409468915,372.0,0.11170239556976491,1.0,-0.3599993424895802,-0.5088452244804671,-0.27346103900650787,-0.16615354268749735,13920498.0,13920523.0,25.0,23.68192876810157,0.18349385644184238,0.24243084437923265,-2.516957230818184,-0.7551044034786663,10.283845506250161,-0.3623020203487564,0.38333333333333336
68,16344.66795,3.5078649,1,69,2,2,1,2,1,1,-38.07692308,n/a,n/a,13921059.0,13924568.0,0.0,0.0,0.0,13922359.0,13921576.0,13923569.0,13921576.0,13921970.0,13923576.0,13924568.0,3509.0,517.0,394.0,992.0,1993.0,-13923576.0,0.0,0.0,0.0,1.0,0.0,0.0,0.0,-0.373845471046871,6.237680915059857,-0.22499958905598813,-0.6992294921432263,13922338.0,13922394.0,56.0,216.92344791308835,6.628512288226343,6.635911496869716,0.07160511704423843,368.0,0.09717722195631627,1.0,6.244603979338504,6.203065593666628,-0.7269217492578078,-0.758075538511713,13922418.0,13922439.0,21.0,13.15584626148856,0.05192298208984421,0.08103238984417252,2.498091544796539,2.7928216500059113,9.7058328389771,0.3754766392705261,0.37916666666666665
69,16348.18413,3.507855,1,70,2,2,2,1,5,1,-38.07692308,n/a,n/a,13924575.0,13928085.0,0.0,0.0,0.0,13926751.0,13925092.0,13927085.0,13925092.0,13926286.0,13927092.0,13928085.0,3510.0,517.0,1194.0,993.0,1993.0,-13927092.0,0.0,0.0,0.0,1.0,0.0,0.0,0.0,-0.2526918461705697,9.58152096164577,-0.40153772816145655,-1.450381966376292,13926726.0,13926811.0,85.0,231.86954746631187,9.88998563120571,9.905623455654476,0.10625094171279105,440.0,0.11416895759654642,1.0,9.58152096164577,8.948060580149683,-1.4469204342369684,-1.5576894626953024,13926815.0,13926844.0,29.0,35.90847207661284,0.6430721830329568,0.6484162108766822,2.968479542810032,2.9263979265112114,9.210393409885896,1.0078583475156275,0.8166666666666667
70,16351.70034,3.5078258,1,71,2,1,1,1,4,2,-38.07692308,n/a,n/a,13928092.0,13931601.0,0.0,0.0,0.0,13930002.0,13928608.0,13930601.0,13928608.0,13929601.0,13930608.0,13931601.0,3509.0,516.0,993.0,993.0,1993.0,-13930608.0,0.0,1.0,0.0,0.0,0.0,0.0,0.0,0.0,0.0,0.0,0.0,0.0,0.0,0.0,0.0,0.0,0.0,0.0,0.0,0.0,0.0,0.0,0.0,0.0,0.0,0.0,0.0,0.0,0.0,0.0,0.0,0.0,0.0,0.0,0.0,0.0
71,16355.21645,3.6828597,1,72,2,2,1,2,2,2,-38.07692308,n/a,n/a,13931608.0,13935292.0,0.0,0.0,0.0,13932335.0,13932301.0,13934293.0,13932301.0,13932892.0,13934299.0,13935292.0,3684.0,693.0,591.0,993.0,1992.0,-13934299.0,0.0,1.0,0.0,0.0,0.0,0.0,0.0,0.0,0.0,0.0,0.0,0.0,0.0,0.0,0.0,0.0,0.0,0.0,0.0,0.0,0.0,0.0,0.0,0.0,0.0,0.0,0.0,0.0,0.0,0.0,0.0,0.0,0.0,0.0,0.0,0.0
72,16358.9076,3.507868,1,73,2,2,2,1,1,2,-38.07692308,n/a,n/a,13935299.0,13938808.0,0.0,0.0,0.0,13936649.0,13935816.0,13937809.0,13935816.0,13936209.0,13937815.0,13938809.0,3509.0,517.0,393.0,994.0,1993.0,-13937815.0,0.0,0.0,0.0,1.0,0.0,0.0,0.0,-0.3599993424895802,10.806903338966078,-0.28038410328515523,-1.3361514057786381,13936628.0,13936698.0,70.0,350.5303390933891,11.216700053675142,11.298015096578563,0.09426412964731773,419.0,0.1284212486423613,0.0,0.0,0.0,0.0,0.0,0.0,0.0,0.0,0.0,0.0,0.0,0.0,0.0,10.232237232386495,-0.2964289257398923,0.4041666666666667
73,16362.4238,3.507938,1,74,2,1,2,1,1,1,-38.07692308,n/a,n/a,13938815.0,13942325.0,0.0,0.0,0.0,13940208.0,13939332.0,13941324.0,13939332.0,13939725.0,13941331.0,13942325.0,3510.0,517.0,393.0,994.0,1992.0,-13941331.0,0.0,0.0,0.0,1.0,0.0,0.0,0.0,-0.5573066744309868,-9.768443697169209,-0.4949990959231723,-0.4465376459726526,13940189.0,13940268.0,79.0,327.9810581622995,9.211264504061864,9.312606176576622,-3.1363315221246517,464.0,3.0787333047737646,0.0,0.0,0.0,0.0,0.0,0.0,0.0,0.0,0.0,0.0,0.0,0.0,0.0,-9.829692696249898,-0.21738121220925463,0.42916666666666664
74,16365.94002,3.7327744,1,75,2,1,2,1,4,1,-38.07692308,n/a,n/a,13942331.0,13946066.0,0.0,0.0,0.0,13944381.0,13943074.0,13945065.0,13943075.0,13944064.0,13945073.0,13946066.0,3735.0,744.0,989.0,993.0,1991.0,-13945073.0,0.0,0.0,0.0,1.0,0.0,0.0,0.0,-0.3807685353255184,-10.675365117671806,-0.09346136776171972,0.3946146638828092,13944360.0,13944449.0,89.0,248.74975010259672,10.30616014847051,10.673848625419287,-3.0942172346296575,296.0,-3.058801533453495,1.0,-10.678826649811128,-10.436519400058527,0.3703839389075513,0.03807685353255263,13944453.0,13944485.0,32.0,40.57365890891112,0.41126731242963716,0.5238934834862473,0.9407624172489826,-0.7667087509505437,-10.356097089659297,0.45452435280116377,0.6416666666666667
75,16369.68113,3.5077955,1,76,2,2,2,1,5,2,-38.07692308,n/a,n/a,13946072.0,13949581.0,0.0,0.0,0.0,13948539.0,13946589.0,13948582.0,13946589.0,13947782.0,13948589.0,13949581.0,3509.0,517.0,1193.0,992.0,1993.0,-13948589.0,0.0,0.0,0.0,1.0,0.0,0.0,0.0,-0.24923031403124998,7.961523920442657,-0.20423039622005,-0.29076869970312236,13948516.0,13948579.0,63.0,286.38585888339685,8.211210262616646,8.40373674541259,0.010539238770459567,734.0,0.06884231937529613,0.0,0.0,0.0,0.0,0.0,0.0,0.0,0.0,0.0,0.0,0.0,0.0,0.0,8.849135492840233,1.468970009777678,0.9625
76,16373.1973,3.9994228,1,77,2,2,2,2,5,1,-38.07692308,n/a,n/a,13949589.0,13953589.0,0.0,0.0,0.0,13952181.0,13950599.0,13952590.0,13950599.0,13951788.0,13952596.0,13953589.0,4000.0,1010.0,1189.0,993.0,1991.0,-13952596.0,0.0,1.0,0.0,0.0,0.0,0.0,0.0,0.0,0.0,0.0,0.0,0.0,0.0,0.0,0.0,0.0,0.0,0.0,0.0,0.0,0.0,0.0,0.0,0.0,0.0,0.0,0.0,0.0,0.0,0.0,0.0,0.0,0.0,0.0,0.0,0.0
77,16377.20506,3.5078741,1,78,2,2,2,1,2,1,-38.07692308,n/a,n/a,13953596.0,13957106.0,0.0,0.0,0.0,13955096.0,13954113.0,13956106.0,13954113.0,13954706.0,13956113.0,13957106.0,3510.0,517.0,593.0,993.0,1993.0,-13956113.0,0.0,0.0,0.0,1.0,0.0,0.0,0.0,-0.4569222423906236,10.727288099761653,-0.15230741413020657,-1.3534590664752524,13955073.0,13955147.0,74.0,305.2053823521305,11.248525515348097,11.70531309010119,0.10698701404195697,367.0,0.13227794518554498,1.0,-0.4292299852760381,-0.4361530495546855,0.22153805691666445,0.21461499263802103,13956140.0,13956160.0,20.0,21.181761025513214,0.009790691396041027,0.09301156826239393,2.356194490192629,-0.7853981633974483,10.0464474464773,-0.059285785147979254,0.4791666666666667
78,16380.72127,3.5079958,1,79,2,2,2,1,2,2,-38.07692308,n/a,n/a,13957112.0,13960622.0,0.0,0.0,0.0,13958772.0,13957629.0,13959622.0,13957629.0,13958222.0,13959629.0,13960622.0,3510.0,517.0,593.0,993.0,1993.0,-13959629.0,0.0,0.0,0.0,1.0,0.0,0.0,0.0,-0.7615370706510368,10.08344312184759,-0.623075785078121,-1.4711511592122302,13958743.0,13958820.0,77.0,297.30522124434697,10.878089318253469,10.974064719964808,0.0780409880648875,521.0,0.09825626838276742,1.0,-0.7615370706510368,10.08344312184759,-0.623075785078121,-1.4711511592122302,13958743.0,13958820.0,77.0,297.30522124434697,10.878089318253469,10.974064719964808,0.0780409880648875,0.09825626838276742,9.850336005795365,0.19103197436570743,0.5583333333333333
79,16384.23756,3.9992673,1,80,2,2,2,2,1,2,-38.07692308,n/a,n/a,13960629.0,13964630.0,0.0,0.0,0.0,13962438.0,13961638.0,13963630.0,13961638.0,13962028.0,13963637.0,13964630.0,4001.0,1009.0,390.0,993.0,1992.0,-13963637.0,0.0,1.0,0.0,0.0,0.0,0.0,0.0,0.0,0.0,0.0,0.0,0.0,0.0,0.0,0.0,0.0,0.0,0.0,0.0,0.0,0.0,0.0,0.0,0.0,0.0,0.0,0.0,0.0,0.0,0.0,0.0,0.0,0.0,0.0,0.0,0.0
80,16388.24534,3.5077012,1,81,2,1,1,1,2,1,-38.07692308,n/a,n/a,13964637.0,13968145.0,0.0,0.0,0.0,13966146.0,13965153.0,13967146.0,13965153.0,13965746.0,13967153.0,13968145.0,3508.0,516.0,593.0,992.0,1993.0,-13967153.0,0.0,0.0,0.0,1.0,0.0,0.0,0.0,-0.21807652477734077,-9.332290647614524,-0.1211536248763013,0.36692240676822757,13966130.0,13966200.0,70.0,283.5194636244891,9.127273266950576,9.255233972546298,-3.0880926730841645,384.0,-3.0607187802211797,1.0,-10.481519317869722,-8.76806090890489,0.22499958905598813,0.9969212561249939,13966683.0,13966724.0,41.0,144.1577953025286,1.87930912288077,2.0217836998425405,-0.4232738471631005,-0.4575221113424399,-10.025804136931832,0.032936547304432046,0.4875
81,16391.76136,3.5079771,1,82,2,1,1,1,5,2,-38.07692308,n/a,n/a,13968152.0,13971663.0,0.0,0.0,0.0,13970162.0,13968669.0,13970662.0,13968669.0,13969862.0,13970669.0,13971663.0,3511.0,517.0,1193.0,994.0,1993.0,-13970669.0,0.0,0.0,0.0,1.0,0.0,0.0,0.0,-0.623075785078121,-9.273444601246034,-0.20423039622005,-0.328845553235675,13970137.0,13970204.0,67.0,282.7471233814515,8.651266357770306,8.747614987335192,3.1271878876841566,275.0,3.0921085192689097,1.0,-9.273444601246034,-9.308059922639263,-0.837690777716142,-0.8861522276666618,13971492.0,13971512.0,20.0,20.225210917506633,0.05955445076955426,0.1574521566412772,2.191045812777726,2.559687535449916,-9.416826505340568,-0.7443659690801673,0.7333333333333333
82,16395.27765,3.9326811,1,83,2,2,1,2,2,1,-38.07692308,n/a,n/a,13971669.0,13975603.0,0.0,0.0,0.0,13973395.0,13972612.0,13974603.0,13972612.0,13973202.0,13974610.0,13975603.0,3934.0,943.0,590.0,993.0,1991.0,-13974610.0,0.0,0.0,0.0,1.0,0.0,0.0,0.0,-0.328845553235675,7.764216588501251,-0.2319226533346355,-0.65769110647135,13973376.0,13973432.0,56.0,286.75868394834055,8.104254043753928,8.232831951308988,0.05256061240227991,174.0,0.08883270994217037,1.0,8.774983973183538,-33.26532385889301,-0.5815373994062447,18.726888873736858,13974111.0,13974153.0,42.0,16063.319407407196,46.26232600898014,48.220256068729036,-2.7110453118210205,-2.6369693744085634,9.716154493749835,0.3623020203487564,0.38333333333333336
83,16399.21866,3.5078057,1,84,2,2,1,1,3,1,-38.07692308,n/a,n/a,13975610.0,13979119.0,0.0,0.0,0.0,13976193.0,13976126.0,13978119.0,13976126.0,13976919.0,13978126.0,13979119.0,3509.0,516.0,793.0,993.0,1993.0,-13978126.0,0.0,1.0,0.0,0.0,0.0,0.0,0.0,0.0,0.0,0.0,0.0,0.0,0.0,0.0,0.0,0.0,0.0,0.0,0.0,0.0,0.0,0.0,0.0,0.0,0.0,0.0,0.0,0.0,0.0,0.0,0.0,0.0,0.0,0.0,0.0,0.0
84,16402.73481,3.5077998,1,85,2,2,2,1,5,2,-38.07692308,n/a,n/a,13979126.0,13982635.0,0.0,0.0,0.0,13981152.0,13979642.0,13981636.0,13979642.0,13980835.0,13981642.0,13982635.0,3509.0,516.0,1193.0,993.0,1994.0,-13981642.0,0.0,0.0,0.0,1.0,0.0,0.0,0.0,-0.38769159960416577,6.614987918246048,-0.7096140885611933,-1.4123051128437394,13981125.0,13981186.0,61.0,215.21975360157438,7.0378473346134856,7.066442112906542,0.10001123555415564,290.0,0.10108218245242902,1.0,9.134983315673121,-33.26532385889301,-1.5023049484661353,18.726888873736858,13981929.0,13982021.0,92.0,20050.374322843978,46.978785969773845,83.50379515427485,-2.6964321610250845,-2.879732568811414,9.396183195795098,0.7707152069237145,0.7416666666666667
85,16406.25097,3.5079532,1,86,2,2,1,2,3,1,-38.07692308,n/a,n/a,13982642.0,13986151.0,0.0,0.0,0.0,13984535.0,13983159.0,13985151.0,13983159.0,13983952.0,13985158.0,13986151.0,3509.0,517.0,793.0,993.0,1992.0,-13985158.0,0.0,0.0,0.0,1.0,0.0,0.0,0.0,-0.39807619602213284,8.293831005817651,-0.3530762782109368,-1.4676896270729065,13984516.0,13984591.0,75.0,232.3356029664889,8.763082432731967,9.068151901650332,0.1275396971557447,564.0,0.14016956765920568,0.0,0.0,0.0,0.0,0.0,0.0,0.0,0.0,0.0,0.0,0.0,0.0,0.0,10.4489919826139,-0.5730959230971223,0.6791666666666667
86,16409.76716,3.9910841,1,87,2,2,1,2,4,1,-38.07692308,n/a,n/a,13986158.0,13990151.0,0.0,0.0,0.0,13988534.0,13987158.0,13989151.0,13987158.0,13988151.0,13989158.0,13990151.0,3993.0,1000.0,993.0,993.0,1993.0,-13989158.0,0.0,1.0,0.0,0.0,0.0,0.0,0.0,0.0,0.0,0.0,0.0,0.0,0.0,0.0,0.0,0.0,0.0,0.0,0.0,0.0,0.0,0.0,0.0,0.0,0.0,0.0,0.0,0.0,0.0,0.0,0.0,0.0,0.0,0.0,0.0,0.0
87,16413.76657,3.9994716,1,88,2,2,2,1,5,2,-38.07692308,n/a,n/a,13990157.0,13994159.0,0.0,0.0,0.0,13993374.0,13991167.0,13993157.0,13991167.0,13992357.0,13993167.0,13994159.0,4002.0,1010.0,1190.0,992.0,1990.0,-13993167.0,0.0,1.0,0.0,0.0,0.0,0.0,0.0,0.0,0.0,0.0,0.0,0.0,0.0,0.0,0.0,0.0,0.0,0.0,0.0,0.0,0.0,0.0,0.0,0.0,0.0,0.0,0.0,0.0,0.0,0.0,0.0,0.0,0.0,0.0,0.0,0.0
88,16417.77432,3.9994788,1,89,2,1,2,2,2,2,-38.07692308,n/a,n/a,13994165.0,13998167.0,0.0,0.0,0.0,13996015.0,13995175.0,13997166.0,13995175.0,13995765.0,13997173.0,13998167.0,4002.0,1010.0,590.0,994.0,1991.0,-13997173.0,0.0,1.0,0.0,0.0,0.0,0.0,0.0,0.0,0.0,0.0,0.0,0.0,0.0,0.0,0.0,0.0,0.0,0.0,0.0,0.0,0.0,0.0,0.0,0.0,0.0,0.0,0.0,0.0,0.0,0.0,0.0,0.0,0.0,0.0,0.0,0.0
89,16421.7821,3.5078695,1,90,2,2,2,2,2,2,-38.07692308,n/a,n/a,13998173.0,14001682.0,0.0,0.0,0.0,13999473.0,13998690.0,14000682.0,13998690.0,13999283.0,14000689.0,14001682.0,3509.0,517.0,593.0,993.0,1992.0,-14000689.0,0.0,0.0,0.0,1.0,0.0,0.0,0.0,-0.5192298208984342,8.120754398851506,-0.1211536248763013,-1.3326898736393142,13999453.0,13999518.0,65.0,294.24833080023905,8.724514164100759,8.79161361079245,0.13931598077125099,170.0,0.1633362643560812,1.0,-33.26532385889301,-0.7165371528398408,18.726888873736858,0.11769209273697762,14000683.0,14000714.0,31.0,12953.62210639889,37.49300895993972,39.095185925867405,0.519375143730065,0.560176053377502,10.283845506250161,-0.3623020203487564,0.38333333333333336
90,16425.29831,3.5078089,1,91,2,1,1,2,5,1,-38.07692308,n/a,n/a,14001689.0,14005198.0,0.0,0.0,0.0,14003849.0,14002206.0,14004199.0,14002206.0,14003399.0,14004205.0,14005198.0,3509.0,517.0,1193.0,993.0,1993.0,-14004205.0,0.0,0.0,0.0,1.0,0.0,0.0,0.0,-0.15230741413020657,-8.401138502136666,-0.5849989315455684,-0.6611526386106736,14003826.0,14003904.0,78.0,291.9613066874383,8.249182608329239,8.390536843139957,3.1323608554340776,427.0,3.060644100111409,1.0,-5.2926826410247045,-1.8034582445872287,-0.0,-0.1765381391054684,14004571.0,14004676.0,105.0,166.60265444458034,3.493687536579837,4.993584956499022,0.050552131736485095,-0.3680198994103977,-9.231036719431366,-0.9815091096720804,0.8083333333333333
91,16428.81444,3.5078394,1,92,2,2,2,1,2,1,-38.07692308,n/a,n/a,14005205.0,14008715.0,0.0,0.0,0.0,14006699.0,14005722.0,14007715.0,14005722.0,14006315.0,14007722.0,14008715.0,3510.0,517.0,593.0,993.0,1993.0,-14007722.0,0.0,0.0,0.0,1.0,0.0,0.0,0.0,-0.4292299852760381,10.910749303145765,-0.4223069209973947,-1.6615354268749893,14006673.0,14006765.0,92.0,303.4659198185213,11.407489537650914,11.634238357747074,0.10884769295658686,358.0,0.1145014604921335,0.0,0.0,0.0,0.0,0.0,0.0,0.0,0.0,0.0,0.0,0.0,0.0,0.0,10.056769101250028,-0.07246040406975286,0.475
92,16432.33061,3.5078548,1,93,2,2,1,1,4,1,-38.07692308,n/a,n/a,14008721.0,14012231.0,0.0,0.0,0.0,14010698.0,14009238.0,14011231.0,14009238.0,14010231.0,14011238.0,14012231.0,3510.0,517.0,993.0,993.0,1993.0,-14011238.0,0.0,0.0,0.0,1.0,0.0,0.0,0.0,-0.5919219958242157,9.681905393686137,-0.5919219958242157,-2.5546107188202947,14010682.0,14010746.0,64.0,301.4410670337988,10.459621228936978,10.483422530485875,0.1887633344671786,451.0,0.18832962510108409,1.0,-4.278453724203098,-4.195376952859349,-0.27346103900650787,-0.20423039622005,14011448.0,14011469.0,21.0,40.64742180793888,0.10814172107714781,0.26362243371738747,-0.6947382761967078,0.23860932250819586,10.552208530341234,-0.7048421123148505,0.7208333333333333
93,16435.84695,3.5076999,1,94,2,2,1,1,1,2,-38.07692308,n/a,n/a,14012238.0,14015747.0,0.0,0.0,0.0,14013487.0,14012754.0,14014747.0,14012754.0,14013147.0,14014754.0,14015747.0,3509.0,516.0,393.0,993.0,1993.0,-14014754.0,0.0,0.0,0.0,1.0,0.0,0.0,0.0,-0.6715372350286407,8.615753494774687,-0.28730716756379865,-0.6473065100533828,14013461.0,14013532.0,71.0,302.845048760401,9.294265362387916,9.423952431634916,0.038743182608968633,314.0,0.08347677163731064,1.0,-33.26532385889301,0.3773070031861947,18.726888873736858,-0.1488458819908829,14014151.0,14014200.0,49.0,13499.886117389122,38.57615810174353,40.56483912690275,0.511299427943708,0.5441805865736952,9.643902910340701,0.45452435280116377,0.3541666666666667
94,16439.36296,3.507886,1,95,2,2,2,1,3,2,-38.07692308,n/a,n/a,14015754.0,14019263.0,0.0,0.0,0.0,14017330.0,14016270.0,14018263.0,14016270.0,14017064.0,14018270.0,14019264.0,3509.0,516.0,794.0,994.0,1993.0,-14018270.0,0.0,0.0,0.0,1.0,0.0,0.0,0.0,-0.5988450601028592,9.418828951097593,-0.3080763603997368,-0.7199986849791604,14017308.0,14017381.0,73.0,279.23085523190485,10.02613946622367,10.304471877943246,0.04109640595850258,244.0,0.08138371542540951,1.0,-33.26532385889301,0.7753831992083275,18.726888873736858,-0.079615239204425,14018012.0,14018079.0,67.0,37744.94199876547,38.89028585605341,115.58937433573487,0.5047383666472924,0.20253450220183758,9.943230898749968,0.07246040406975286,0.5208333333333334
95,16442.87916,3.5078543,1,96,2,2,2,2,1,2,-38.07692308,n/a,n/a,14019270.0,14022780.0,0.0,0.0,0.0,14020603.0,14019787.0,14021779.0,14019787.0,14020180.0,14021786.0,14022780.0,3510.0,517.0,393.0,994.0,1992.0,-14021786.0,0.0,0.0,0.0,1.0,0.0,0.0,0.0,-0.3115378925390605,10.509211574984304,-0.4776914352265578,-1.7030738125468656,14020582.0,14020660.0,78.0,292.40158885644456,10.889911891725953,11.16792306790027,0.11276336801758044,402.0,0.12024137352287402,1.0,-0.3115378925390605,10.509211574984304,-0.4776914352265578,-1.7030738125468656,14020582.0,14020660.0,78.0,292.40158885644456,10.889911891725953,11.16792306790027,0.11276336801758044,0.12024137352287402,10.252880541931965,-0.3227781635834356,0.3958333333333333
96,16446.39532,3.5078537,1,97,2,1,1,2,4,2,-38.07692308,n/a,n/a,14022786.0,14026295.0,0.0,0.0,0.0,14024562.0,14023303.0,14025296.0,14023303.0,14024296.0,14025302.0,14026295.0,3509.0,517.0,993.0,993.0,1993.0,-14025302.0,0.0,0.0,0.0,1.0,0.0,0.0,0.0,-0.418845388858071,-9.055368076468692,-0.5676912708489539,0.10038443204036315,14024549.0,14024615.0,66.0,319.9145764222897,8.662323549625935,8.825455707400879,-3.064391683027971,253.0,-3.0595263048416697,1.0,-0.418845388858071,-9.055368076468692,-0.5676912708489539,0.10038443204036315,14024549.0,14024615.0,66.0,319.9145764222897,8.662323549625935,8.825455707400879,-3.064391683027971,-3.0595263048416697,-9.685189529431632,-0.4018258771140733,0.625
97,16449.91151,3.5078042,1,98,2,2,2,1,2,2,-38.07692308,n/a,n/a,14026302.0,14029811.0,0.0,0.0,0.0,14027695.0,14026819.0,14028812.0,14026819.0,14027412.0,14028819.0,14029811.0,3509.0,517.0,593.0,992.0,1993.0,-14028819.0,0.0,0.0,0.0,1.0,0.0,0.0,0.0,-0.6334603814960881,10.495365446427018,-0.41538385671874734,-1.5992278483671787,14027671.0,14027742.0,71.0,281.2475632399974,11.19161520535845,11.177846855001915,0.10597781412937698,259.0,0.10610884448217249,1.0,-0.6334603814960881,10.495365446427018,-0.41538385671874734,-1.5992278483671787,14027671.0,14027742.0,71.0,281.2475632399974,11.19161520535845,11.177846855001915,0.10597781412937698,0.10610884448217249,10.18062895852283,-0.2305558311310243,0.425
98,16453.42764,3.5078788,1,99,2,2,1,2,3,2,-38.07692308,n/a,n/a,14029818.0,14033328.0,0.0,0.0,0.0,14031378.0,14030335.0,14032328.0,14030335.0,14031128.0,14032335.0,14033328.0,3510.0,517.0,793.0,993.0,1993.0,-14032335.0,0.0,0.0,0.0,1.0,0.0,0.0,0.0,-0.4880760316445289,7.726139734968702,-0.4049992603007802,-2.1357653299622275,14031351.0,14031448.0,97.0,204.2312110800404,8.39457514400632,8.497359196648718,0.20766612470697668,223.0,0.21553180522880389,1.0,8.228061895170521,9.200752426320252,-1.8969196123489445,-0.3807685353255184,14031727.0,14031753.0,26.0,112.26285906523343,1.8013442085697113,1.8013442085697113,-1.0003825275668403,1.0003825275668403,10.025804136931832,-0.032936547304432046,0.5083333333333333
99,16456.94385,3.5078408,1,100,2,1,1,2,5,2,-38.07692308,n/a,n/a,14033334.0,14036844.0,0.0,0.0,0.0,14035294.0,14033851.0,14035844.0,14033851.0,14035044.0,14035851.0,14036844.0,3510.0,517.0,1193.0,993.0,1993.0,-14035851.0,0.0,0.0,0.0,1.0,0.0,0.0,0.0,-0.4430761138333289,-9.51921338313796,-0.5261528851770815,-0.1869227355234355,14035275.0,14035340.0,65.0,289.249164216187,9.082474598130982,9.478797590055004,-3.1042339945927586,231.0,-3.0736155610469824,1.0,-0.4430761138333289,-9.51921338313796,-0.5261528851770815,-0.1869227355234355,14035275.0,14035340.0,65.0,289.249164216187,9.082474598130982,9.478797590055004,-3.1042339945927586,-3.0736155610469824,-9.468434779204234,-0.6784928744713032,0.7125
100,16767.40839,3.7659836,2,1,2,2,1,1,3,1,-38.07692308,n/a,n/a,14343799.0,14347564.0,0.0,0.0,0.0,14345747.0,14344563.0,14346564.0,14344564.0,14345363.0,14346571.0,14347565.0,3765.0,765.0,799.0,994.0,2001.0,-14346571.0,0.0,0.0,0.0,1.0,0.0,0.0,0.0,-0.18346120338411182,7.501140145912713,-0.18346120338411182,0.26653797472786445,14345717.0,14345786.0,69.0,228.533953275886,7.69776572506049,7.755578014835046,-0.05849176145964738,354.0,-0.06342109263822984,1.0,9.044983480050721,-2.0769192835937367,-0.31846095681770786,0.2561533783098934,14346873.0,14346940.0,67.0,270.02970729263666,11.136736627850027,11.129168207483898,-3.089973439229103,3.0852660054716816,10.190950613295565,-0.24373045005279792,0.575
101,16771.18272,3.5079481,2,2,2,2,2,1,5,2,-38.07692308,n/a,n/a,14347571.0,14351081.0,0.0,0.0,0.0,14349548.0,14348088.0,14350081.0,14348088.0,14349281.0,14350087.0,14351081.0,3510.0,517.0,1193.0,994.0,1993.0,-14350087.0,0.0,0.0,0.0,1.0,0.0,0.0,0.0,-0.1384612855729158,7.123833142726515,-0.11423056059765394,0.07615370706510526,14349526.0,14349578.0,52.0,244.94807396135803,7.264789503673347,7.274562770286009,-0.02620944023800367,245.0,0.0580852069673655,0.0,0.0,0.0,0.0,0.0,0.0,0.0,0.0,0.0,0.0,0.0,0.0,0.0,9.447791469658764,0.7048421123148505,0.7208333333333333
102,16774.69893,3.5077818,2,3,2,1,1,2,5,1,-38.07692308,n/a,n/a,14351087.0,14354597.0,0.0,0.0,0.0,14353030.0,14351604.0,14353597.0,14351604.0,14352796.0,14353604.0,14354597.0,3510.0,517.0,1192.0,993.0,1993.0,-14353604.0,0.0,0.0,0.0,1.0,0.0,0.0,0.0,-0.010384596417967108,-9.218060087016866,0.10730749631901051,-0.33923014965364207,14353007.0,14353062.0,55.0,357.28385443895917,9.218496830256356,9.292878719969561,3.093134378627481,211.0,3.056935662043057,1.0,-9.238829279852805,-9.463828868908793,-0.33576861751432235,-0.3634608746289039,14353064.0,14353095.0,31.0,21.930626647841667,0.2266973228325902,0.262278168132112,3.0191315961724587,2.7488319879524745,-9.499399743522433,-0.6389690177059864,0.7
103,16778.21505,3.5079645,2,4,2,2,2,2,5,1,-38.07692308,n/a,n/a,14354603.0,14358113.0,0.0,0.0,0.0,14356663.0,14355120.0,14357113.0,14355120.0,14356313.0,14357120.0,14358113.0,3510.0,517.0,1193.0,993.0,1993.0,-14357120.0,0.0,0.0,0.0,1.0,0.0,0.0,0.0,-0.1384612855729158,8.193446573777292,0.19384579980208289,0.38423006746484206,14356634.0,14356707.0,73.0,373.61124567828335,8.334082717736562,8.447932835134331,-0.022846045174236183,321.0,-0.05370293020426066,1.0,2.121919201404933,2.0457654943398316,0.543460545873696,0.5711528029882775,14357498.0,14357518.0,20.0,21.158177688056,0.08103238984416884,0.123843538717222,-2.7928216500058944,-2.677945044588987,9.354896576704167,0.823413682610805,0.7583333333333333
104,16781.73966,3.9993483,2,5,2,2,1,1,4,2,-38.07692308,n/a,n/a,14358130.0,14362129.0,0.0,0.0,0.0,14360461.0,14359136.0,14361129.0,14359137.0,14360128.0,14361136.0,14362130.0,3999.0,1007.0,991.0,994.0,1993.0,-14361136.0,0.0,1.0,0.0,0.0,0.0,0.0,0.0,0.0,0.0,0.0,0.0,0.0,0.0,0.0,0.0,0.0,0.0,0.0,0.0,0.0,0.0,0.0,0.0,0.0,0.0,0.0,0.0,0.0,0.0,0.0,0.0,0.0,0.0,0.0,0.0,0.0
105,16785.74737,3.5077788,2,6,2,2,2,1,2,1,-38.07692308,n/a,n/a,14362136.0,14365645.0,0.0,0.0,0.0,14363746.0,14362652.0,14364645.0,14362653.0,14363245.0,14364652.0,14365646.0,3509.0,517.0,592.0,994.0,1993.0,-14364652.0,0.0,0.0,0.0,1.0,0.0,0.0,0.0,-0.21807652477734077,8.383830841440052,0.4257684531367144,-1.041921173936192,14363726.0,14363791.0,65.0,326.6591389491217,8.726220440626197,8.73996354032387,0.16899631722471203,481.0,0.17797600013875672,1.0,-3.4476860107656035,-0.4776914352265578,-0.3461532139322894,-0.006923064278647363,14364836.0,14364881.0,45.0,212.4491360914428,2.989305081982331,2.980805299921904,-0.11372626524649102,-0.13746285801344668,9.90194427965903,0.12515887975684334,0.5375
106,16789.2635,3.5080389,2,7,2,1,1,1,1,2,-38.07692308,n/a,n/a,14365652.0,14369162.0,0.0,0.0,0.0,14366195.0,14366168.0,14368161.0,14366168.0,14366562.0,14368168.0,14369162.0,3510.0,516.0,394.0,994.0,1993.0,-14368168.0,0.0,1.0,0.0,0.0,0.0,0.0,0.0,0.0,0.0,0.0,0.0,0.0,0.0,0.0,0.0,0.0,0.0,0.0,0.0,0.0,0.0,0.0,0.0,0.0,0.0,0.0,0.0,0.0,0.0,0.0,0.0,0.0,0.0,0.0,0.0,0.0
107,16792.77968,3.4994877,2,8,2,2,1,1,3,2,-38.07692308,n/a,n/a,14369168.0,14372669.0,0.0,0.0,0.0,14370901.0,14369677.0,14371669.0,14369677.0,14370468.0,14371676.0,14372669.0,3501.0,509.0,791.0,993.0,1992.0,-14371676.0,0.0,0.0,0.0,0.0,1.0,0.0,0.0,0.0,0.0,0.0,0.0,0.0,0.0,0.0,0.0,0.0,0.0,0.0,0.0,0.0,0.0,0.0,0.0,0.0,0.0,0.0,0.0,0.0,0.0,0.0,0.0,0.0,0.0,0.0,0.0,0.0
108,16796.2875,3.5078365,2,9,2,2,1,2,5,2,-38.07692308,n/a,n/a,14372676.0,14376185.0,0.0,0.0,0.0,14374919.0,14373192.0,14375186.0,14373192.0,14374385.0,14375192.0,14376185.0,3509.0,516.0,1193.0,993.0,1994.0,-14375192.0,0.0,0.0,0.0,1.0,0.0,0.0,0.0,-0.4361530495546855,8.228061895170521,-0.20423039622005,-1.041921173936192,14374891.0,14374959.0,68.0,349.17511402511104,8.704616387151722,8.75797252159151,0.09638439712641474,506.0,0.09778089762499274,0.0,0.0,0.0,0.0,0.0,0.0,0.0,0.0,0.0,0.0,0.0,0.0,0.0,10.872179828295964,-1.1132552988898086,0.85
109,16799.8038,3.5493695,2,10,2,2,2,1,5,2,-38.07692308,n/a,n/a,14376192.0,14379742.0,0.0,0.0,0.0,14378758.0,14376752.0,14378742.0,14376752.0,14377942.0,14378751.0,14379743.0,3550.0,560.0,1190.0,992.0,1990.0,-14378751.0,0.0,0.0,0.0,0.0,0.0,0.0,1.0,-0.22153805691666445,11.225748727824145,-0.6369219136354117,-1.5334587377200406,14378743.0,14378809.0,66.0,515.5016999567082,11.482340920258435,11.46508617730481,0.0781591736168057,801.0,0.07827704238508643,0.0,0.0,0.0,0.0,0.0,0.0,0.0,0.0,0.0,0.0,0.0,0.0,0.0,0.0,0.0,0.0
110,16803.36164,3.9993062,2,11,2,1,2,1,3,1,-38.07692308,n/a,n/a,14379750.0,14383750.0,0.0,0.0,0.0,14381875.0,14380759.0,14382751.0,14380759.0,14381549.0,14382758.0,14383751.0,4000.0,1009.0,790.0,993.0,1992.0,-14382758.0,0.0,1.0,0.0,0.0,0.0,0.0,0.0,0.0,0.0,0.0,0.0,0.0,0.0,0.0,0.0,0.0,0.0,0.0,0.0,0.0,0.0,0.0,0.0,0.0,0.0,0.0,0.0,0.0,0.0,0.0,0.0,0.0,0.0,0.0,0.0,0.0
111,16807.36927,3.5078373,2,12,2,2,1,1,2,2,-38.07692308,n/a,n/a,14383757.0,14387267.0,0.0,0.0,0.0,14385241.0,14384274.0,14386267.0,14384274.0,14384867.0,14386274.0,14387267.0,3510.0,517.0,593.0,993.0,1993.0,-14386274.0,0.0,0.0,0.0,1.0,0.0,0.0,0.0,-0.08653830348307236,8.615753494774687,-0.5053836923411433,-0.8930752919453052,14385223.0,14385275.0,52.0,339.97941893143224,8.710923448086769,8.721700997450695,0.044521078295018,356.0,0.06672656706928727,0.0,0.0,0.0,0.0,0.0,0.0,0.0,0.0,0.0,0.0,0.0,0.0,0.0,9.943230898749968,0.07246040406975286,0.475
112,16810.88544,3.5078186,2,13,2,2,2,2,4,2,-38.07692308,n/a,n/a,14387274.0,14390783.0,0.0,0.0,0.0,14389057.0,14387790.0,14389784.0,14387790.0,14388783.0,14389790.0,14390783.0,3509.0,516.0,993.0,993.0,1994.0,-14389790.0,0.0,0.0,0.0,1.0,0.0,0.0,0.0,-0.2423072497526026,10.090366186126237,-0.21461499263802103,-1.2980745522460855,14389035.0,14389114.0,79.0,369.20485365982665,10.389322641530693,10.582947706472101,0.10447582959773656,252.0,0.11242713083018996,0.0,0.0,0.0,0.0,0.0,0.0,0.0,0.0,0.0,0.0,0.0,0.0,0.0,9.695511184204367,0.3886512581922997,0.6208333333333333
113,16814.4018,3.9992142,2,14,2,1,1,1,1,1,-38.07692308,n/a,n/a,14390790.0,14394791.0,0.0,0.0,0.0,14392599.0,14391800.0,14393792.0,14391800.0,14392189.0,14393798.0,14394791.0,4001.0,1010.0,389.0,993.0,1992.0,-14393798.0,0.0,1.0,0.0,0.0,0.0,0.0,0.0,0.0,0.0,0.0,0.0,0.0,0.0,0.0,0.0,0.0,0.0,0.0,0.0,0.0,0.0,0.0,0.0,0.0,0.0,0.0,0.0,0.0,0.0,0.0,0.0,0.0,0.0,0.0,0.0,0.0
114,16818.40934,3.5078468,2,15,2,2,1,1,3,2,-38.07692308,n/a,n/a,14394797.0,14398306.0,0.0,0.0,0.0,14396407.0,14395314.0,14397307.0,14395314.0,14396107.0,14397314.0,14398306.0,3509.0,517.0,793.0,992.0,1993.0,-14397314.0,0.0,0.0,0.0,1.0,0.0,0.0,0.0,-0.2699995068671842,7.9753700489999515,-0.1211536248763013,-0.30461482826041314,14396382.0,14396444.0,62.0,353.2195369704702,8.24741032845873,8.283591783794732,0.02224653918048291,275.0,0.09164354305782418,1.0,-33.26532385889301,-0.5365374815950487,18.726888873736858,0.031153789253905263,14398208.0,14398255.0,47.0,32611.91119268889,37.69222689202605,115.30310812024048,0.5189980319138278,2.9515272616090935,10.087734065568233,-0.11198426083506974,0.5333333333333333
115,16821.92551,3.5078548,2,16,2,1,2,2,1,1,-38.07692308,n/a,n/a,14398314.0,14401823.0,0.0,0.0,0.0,14398930.0,14398830.0,14400823.0,14398830.0,14399223.0,14400830.0,14401823.0,3509.0,516.0,393.0,993.0,1993.0,-14400830.0,0.0,1.0,0.0,0.0,0.0,0.0,0.0,0.0,0.0,0.0,0.0,0.0,0.0,0.0,0.0,0.0,0.0,0.0,0.0,0.0,0.0,0.0,0.0,0.0,0.0,0.0,0.0,0.0,0.0,0.0,0.0,0.0,0.0,0.0,0.0,0.0
116,16825.44169,3.5078337,2,17,2,1,1,2,2,1,-38.07692308,n/a,n/a,14401830.0,14405339.0,0.0,0.0,0.0,14403156.0,14402346.0,14404339.0,14402346.0,14402939.0,14404346.0,14405339.0,3509.0,516.0,593.0,993.0,1993.0,-14404346.0,0.0,0.0,0.0,1.0,0.0,0.0,0.0,-1.0488442382148355,-11.305363967028574,-0.294230231842446,1.1284594774192644,14403135.0,14403200.0,65.0,413.5871054616153,10.354720805332446,10.432891336344534,-3.0037613859618775,196.0,-2.961115952999578,1.0,-1.0488442382148355,-11.305363967028574,-0.294230231842446,1.1284594774192644,14403135.0,14403200.0,65.0,413.5871054616153,10.354720805332446,10.432891336344534,-3.0037613859618775,-2.961115952999578,-10.252880541931965,0.3227781635834356,0.3958333333333333
117,16828.95786,3.916105,2,18,2,2,2,2,3,2,-38.07692308,n/a,n/a,14405346.0,14409263.0,0.0,0.0,0.0,14407305.0,14406273.0,14408264.0,14406273.0,14407062.0,14408270.0,14409263.0,3917.0,927.0,789.0,993.0,1991.0,-14408270.0,0.0,1.0,0.0,0.0,0.0,0.0,0.0,0.0,0.0,0.0,0.0,0.0,0.0,0.0,0.0,0.0,0.0,0.0,0.0,0.0,0.0,0.0,0.0,0.0,0.0,0.0,0.0,0.0,0.0,0.0,0.0,0.0,0.0,0.0,0.0,0.0
118,16832.88238,3.6993918,2,19,2,2,2,1,3,1,-38.07692308,n/a,n/a,14409270.0,14412971.0,0.0,0.0,0.0,14411063.0,14409981.0,14411972.0,14409981.0,14410770.0,14411978.0,14412972.0,3701.0,711.0,789.0,994.0,1991.0,-14411978.0,0.0,0.0,0.0,1.0,0.0,0.0,0.0,-0.6923064278645789,8.435753823529895,-0.28038410328515523,-1.3361514057786381,14411036.0,14411095.0,59.0,669.1730957189639,9.188913349798337,9.496095633890388,0.1151500772065036,266.0,0.24409456822857148,0.0,0.0,0.0,0.0,0.0,0.0,0.0,0.0,0.0,0.0,0.0,0.0,0.0,9.9225875892045,0.09880964191329614,0.5291666666666667
119,16836.5901,3.5078358,2,20,2,2,2,1,4,2,-38.07692308,n/a,n/a,14412978.0,14416488.0,0.0,0.0,0.0,14414761.0,14413495.0,14415487.0,14413495.0,14414488.0,14415495.0,14416488.0,3510.0,517.0,993.0,993.0,1992.0,-14415495.0,0.0,0.0,0.0,1.0,0.0,0.0,0.0,-0.6196142529387973,9.083060333583278,-0.1211536248763013,-2.149611458519518,14414722.0,14414817.0,95.0,428.5253138359013,9.91244345834113,10.328936392731691,0.20609337488878826,234.0,0.28327130703606024,1.0,-0.6196142529387973,9.083060333583278,-0.1211536248763013,-2.149611458519518,14414722.0,14414817.0,95.0,428.5253138359013,9.91244345834113,10.328936392731691,0.20609337488878826,0.28327130703606024,9.716154493749835,0.3623020203487564,0.6125
120,16840.10627,3.9996114,2,21,2,1,1,2,1,2,-38.07692308,n/a,n/a,14416494.0,14420496.0,0.0,0.0,0.0,14417727.0,14417504.0,14419495.0,14417504.0,14417896.0,14419502.0,14420496.0,4002.0,1010.0,392.0,994.0,1991.0,-14419502.0,0.0,1.0,0.0,0.0,0.0,0.0,0.0,0.0,0.0,0.0,0.0,0.0,0.0,0.0,0.0,0.0,0.0,0.0,0.0,0.0,0.0,0.0,0.0,0.0,0.0,0.0,0.0,0.0,0.0,0.0,0.0,0.0,0.0,0.0,0.0,0.0
121,16844.11407,3.5078087,2,22,2,1,1,2,3,1,-38.07692308,n/a,n/a,14420502.0,14424011.0,0.0,0.0,0.0,14422102.0,14421019.0,14423012.0,14421019.0,14421812.0,14423018.0,14424011.0,3509.0,517.0,793.0,993.0,1993.0,-14423018.0,0.0,0.0,0.0,1.0,0.0,0.0,0.0,-1.1596132666731696,-10.588826814188733,-0.5607682065703105,-0.35653781035025656,14422080.0,14422163.0,83.0,333.55573876726527,9.431425034393861,9.691956193757086,-3.119936715100535,268.0,-3.0349584445529216,1.0,-1.1596132666731696,-10.588826814188733,-0.5607682065703105,-0.35653781035025656,14422080.0,14422163.0,83.0,333.55573876726527,9.431425034393861,9.691956193757086,-3.119936715100535,-3.0349584445529216,-9.9225875892045,-0.09880964191329614,0.5291666666666667
122,16847.63031,3.9993242,2,23,2,1,2,2,1,1,-38.07692308,n/a,n/a,14424018.0,14428019.0,0.0,0.0,0.0,14425778.0,14425027.0,14427020.0,14425028.0,14425418.0,14427026.0,14428019.0,4001.0,1010.0,390.0,993.0,1993.0,-14427026.0,0.0,1.0,0.0,0.0,0.0,0.0,0.0,0.0,0.0,0.0,0.0,0.0,0.0,0.0,0.0,0.0,0.0,0.0,0.0,0.0,0.0,0.0,0.0,0.0,0.0,0.0,0.0,0.0,0.0,0.0,0.0,0.0,0.0,0.0,0.0,0.0
123,16851.63797,3.7494811,2,24,2,2,1,2,5,1,-38.07692308,n/a,n/a,14428026.0,14431777.0,0.0,0.0,0.0,14429819.0,14428786.0,14430777.0,14428786.0,14429977.0,14430784.0,14431777.0,3751.0,760.0,1191.0,993.0,1991.0,-14430784.0,0.0,0.0,0.0,0.0,0.0,1.0,0.0,-0.9069214205025999,8.390753905718698,-0.46384530666926704,-0.22153805691666445,14429790.0,14429866.0,76.0,374.57703668484504,9.30083218185916,9.324914001092832,-0.026055159699040136,-187.0,-0.09778485905591439,0.0,0.0,0.0,0.0,0.0,0.0,0.0,0.0,0.0,0.0,0.0,0.0,0.0,0.0,0.0,0.0
124,16855.39577,3.507833,2,25,2,1,1,2,5,1,-38.07692308,n/a,n/a,14431784.0,14435293.0,0.0,0.0,0.0,14433917.0,14432300.0,14434293.0,14432300.0,14433493.0,14434300.0,14435293.0,3509.0,516.0,1193.0,993.0,1993.0,-14434300.0,0.0,0.0,0.0,1.0,0.0,0.0,0.0,-0.3773070031861947,-7.909600938352813,-0.8134600527408802,-0.4292299852760381,14433890.0,14433953.0,63.0,268.75465220430516,7.542087553886647,7.764755939131597,-3.090625800920171,397.0,-3.0737790127282985,0.0,0.0,0.0,0.0,0.0,0.0,0.0,0.0,0.0,0.0,0.0,0.0,0.0,-9.262001683749565,-0.9419852529067635,0.7958333333333333
125,16858.91206,3.9995181,2,26,2,2,2,1,2,1,-38.07692308,n/a,n/a,14435300.0,14439302.0,0.0,0.0,0.0,14437376.0,14436310.0,14438301.0,14436310.0,14436900.0,14438308.0,14439302.0,4002.0,1010.0,590.0,994.0,1991.0,-14438308.0,0.0,1.0,0.0,0.0,0.0,0.0,0.0,0.0,0.0,0.0,0.0,0.0,0.0,0.0,0.0,0.0,0.0,0.0,0.0,0.0,0.0,0.0,0.0,0.0,0.0,0.0,0.0,0.0,0.0,0.0,0.0,0.0,0.0,0.0,0.0,0.0
126,16862.9197,3.5078743,2,27,2,1,2,1,3,2,-38.07692308,n/a,n/a,14439307.0,14442817.0,0.0,0.0,0.0,14440874.0,14439824.0,14441817.0,14439824.0,14440617.0,14441824.0,14442817.0,3510.0,517.0,793.0,993.0,1993.0,-14441824.0,0.0,1.0,0.0,0.0,0.0,0.0,0.0,0.0,0.0,0.0,0.0,0.0,0.0,0.0,0.0,0.0,0.0,0.0,0.0,0.0,0.0,0.0,0.0,0.0,0.0,0.0,0.0,0.0,0.0,0.0,0.0,0.0,0.0,0.0,0.0,0.0
127,16866.43594,3.5077484,2,28,2,2,1,2,1,2,-38.07692308,n/a,n/a,14442824.0,14446333.0,0.0,0.0,0.0,14444183.0,14443341.0,14445334.0,14443341.0,14443733.0,14445340.0,14446333.0,3509.0,517.0,392.0,993.0,1993.0,-14445340.0,0.0,0.0,0.0,0.0,1.0,0.0,0.0,0.0,0.0,0.0,0.0,0.0,0.0,0.0,0.0,0.0,0.0,0.0,0.0,0.0,0.0,0.0,0.0,0.0,0.0,0.0,0.0,0.0,0.0,0.0,0.0,0.0,0.0,0.0,0.0,0.0
128,16869.9522,3.5076507,2,29,2,2,2,1,2,1,-38.07692308,n/a,n/a,14446340.0,14449849.0,0.0,0.0,0.0,14447867.0,14446856.0,14448849.0,14446856.0,14447450.0,14448856.0,14449850.0,3509.0,516.0,594.0,994.0,1993.0,-14448856.0,0.0,0.0,0.0,1.0,0.0,0.0,0.0,-0.46384530666926704,8.774983973183538,-1.076536495329421,-2.024996301503893,14447847.0,14447911.0,64.0,366.4249732506066,9.287386202058897,9.333747176463206,0.10230178688923101,397.0,0.1290469882675182,0.0,0.0,0.0,0.0,0.0,0.0,0.0,0.0,0.0,0.0,0.0,0.0,0.0,10.005160827386362,-0.006587309460884834,0.49583333333333335
129,16885.42483,3.5078328,2,30,2,2,2,1,4,2,-38.07692308,n/a,n/a,14461812.0,14465322.0,0.0,0.0,0.0,14463589.0,14462329.0,14464322.0,14462329.0,14463322.0,14464329.0,14465322.0,3510.0,517.0,993.0,993.0,1993.0,-14464329.0,0.0,0.0,0.0,1.0,0.0,0.0,0.0,-0.7719216670690039,8.45652301636583,-0.7442294099544223,-0.9069214205025999,14463570.0,14463626.0,56.0,296.7656829925734,9.22987865388884,9.25134405372688,0.017627581309225298,248.0,0.05877779446005612,0.0,0.0,0.0,0.0,0.0,0.0,0.0,0.0,0.0,0.0,0.0,0.0,0.0,9.695511184204367,0.3886512581922997,0.6208333333333333
130,16888.94098,3.6994753,2,31,2,1,1,2,5,1,-38.07692308,n/a,n/a,14465329.0,14469029.0,0.0,0.0,0.0,14466305.0,14466039.0,14468030.0,14466039.0,14467230.0,14468037.0,14469029.0,3700.0,710.0,1191.0,992.0,1991.0,-14468037.0,0.0,0.0,0.0,0.0,1.0,0.0,0.0,0.0,0.0,0.0,0.0,0.0,0.0,0.0,0.0,0.0,0.0,0.0,0.0,0.0,0.0,0.0,0.0,0.0,0.0,0.0,0.0,0.0,0.0,0.0,0.0,0.0,0.0,0.0,0.0,0.0
131,16892.64879,3.5078305,2,32,2,1,1,2,1,1,-38.07692308,n/a,n/a,14469036.0,14472545.0,0.0,0.0,0.0,14470396.0,14469553.0,14471546.0,14469553.0,14469946.0,14471553.0,14472545.0,3509.0,517.0,393.0,992.0,1993.0,-14471553.0,0.0,0.0,0.0,1.0,0.0,0.0,0.0,-0.6299988493567683,-7.989216177557239,-1.0349981096575447,0.1211536248763013,14470372.0,14470426.0,54.0,266.82503241194325,7.449480956211089,7.549359554545766,-2.9857637980017775,426.0,-2.9729764791422277,1.0,-0.6299988493567683,-7.989216177557239,-1.0349981096575447,0.1211536248763013,14470372.0,14470426.0,54.0,266.82503241194325,7.449480956211089,7.549359554545766,-2.9857637980017775,-2.9729764791422277,-10.221915577613764,0.2832543068181187,0.4083333333333333
132,16896.165,3.5077719,2,33,2,1,2,1,1,1,-38.07692308,n/a,n/a,14472553.0,14476062.0,0.0,0.0,0.0,14473819.0,14473069.0,14475062.0,14473069.0,14473462.0,14475069.0,14476062.0,3509.0,516.0,393.0,993.0,1993.0,-14475069.0,0.0,0.0,0.0,1.0,0.0,0.0,0.0,-0.35653781035025656,-9.436136611794211,-1.0696134310507737,-1.325766809360667,14473805.0,14473860.0,55.0,301.83664865692475,9.083211378604048,9.111190532376781,3.1133881637718104,343.0,3.0582936681137665,0.0,0.0,0.0,0.0,0.0,0.0,0.0,0.0,0.0,0.0,0.0,0.0,0.0,-9.674867874658897,-0.4150004960358469,0.36666666666666664
133,16899.68114,3.7244502,2,34,2,1,1,1,1,2,-38.07692308,n/a,n/a,14476069.0,14479795.0,0.0,0.0,0.0,14477535.0,14476802.0,14478794.0,14476802.0,14477195.0,14478802.0,14479795.0,3726.0,733.0,393.0,993.0,1992.0,-14478802.0,0.0,0.0,0.0,1.0,0.0,0.0,0.0,-0.6923064278645789,-9.6611362008502,-1.1284594774192644,-0.5988450601028592,14477520.0,14477589.0,69.0,278.36412889456017,8.984453179121292,9.005332037197183,-3.082610586534039,325.0,-3.051524379335512,1.0,-0.6923064278645789,-9.6611362008502,-1.1284594774192644,-0.5988450601028592,14477520.0,14477589.0,69.0,278.36412889456017,8.984453179121292,9.005332037197183,-3.082610586534039,-3.051524379335512,-10.345775434886566,0.4413497338793941,0.35833333333333334
134,16903.41392,3.5078398,2,35,2,2,2,1,2,1,-38.07692308,n/a,n/a,14479801.0,14483311.0,0.0,0.0,0.0,14481244.0,14480318.0,14482311.0,14480318.0,14480911.0,14482318.0,14483311.0,3510.0,517.0,593.0,993.0,1993.0,-14482318.0,0.0,0.0,0.0,1.0,0.0,0.0,0.0,-0.5642297387096302,10.353442628714774,-0.9034598883632762,-2.8488409506627406,14481222.0,14481296.0,74.0,360.0848536272988,11.089638289862108,11.09002401684363,0.17633572994876898,311.0,0.17474452389148984,0.0,0.0,0.0,0.0,0.0,0.0,0.0,0.0,0.0,0.0,0.0,0.0,0.0,10.118699029886429,-0.1515081176003866,0.45
135,16906.9301,3.5078572,2,36,2,1,2,1,4,2,-38.07692308,n/a,n/a,14483317.0,14486827.0,0.0,0.0,0.0,14485317.0,14483834.0,14485827.0,14483834.0,14484828.0,14485834.0,14486827.0,3510.0,517.0,994.0,993.0,1993.0,-14485834.0,0.0,0.0,0.0,1.0,0.0,0.0,0.0,-0.4569222423906236,-9.498444190302022,-0.7892293277656184,-0.6403834457747355,14485297.0,14485356.0,59.0,343.29526724390354,9.042747051153713,9.101987357440278,-3.1251316596740546,469.0,-3.0902288841847914,1.0,-0.4569222423906236,-9.498444190302022,-0.7892293277656184,-0.6403834457747355,14485297.0,14485356.0,59.0,343.29526724390354,9.042747051153713,9.101987357440278,-3.1251316596740546,-3.0902288841847914,-10.58317349465943,0.7443659690801673,0.7333333333333333
136,16910.44624,3.9994171,2,37,2,2,1,2,1,2,-38.07692308,n/a,n/a,14486834.0,14490835.0,0.0,0.0,0.0,14488827.0,14487843.0,14489835.0,14487843.0,14488233.0,14489842.0,14490835.0,4001.0,1009.0,390.0,993.0,1992.0,-14489842.0,0.0,1.0,0.0,0.0,0.0,0.0,0.0,0.0,0.0,0.0,0.0,0.0,0.0,0.0,0.0,0.0,0.0,0.0,0.0,0.0,0.0,0.0,0.0,0.0,0.0,0.0,0.0,0.0,0.0,0.0,0.0,0.0,0.0,0.0,0.0,0.0
137,16914.45401,3.5079626,2,38,2,1,2,1,2,1,-38.07692308,n/a,n/a,14490841.0,14494351.0,0.0,0.0,0.0,14492201.0,14491358.0,14493351.0,14491358.0,14491951.0,14493358.0,14494351.0,3510.0,517.0,593.0,993.0,1993.0,-14493358.0,0.0,0.0,0.0,1.0,0.0,0.0,0.0,-0.6092296565208302,-9.214598554877547,-0.7199986849791604,-0.7684601349296841,14492179.0,14492280.0,101.0,231.34645066443818,8.605505353489496,8.673814928542319,3.135961176516907,228.0,3.0736971744267323,1.0,-0.6092296565208302,-9.214598554877547,-0.7199986849791604,-0.7684601349296841,14492179.0,14492280.0,101.0,231.34645066443818,8.605505353489496,8.673814928542319,3.135961176516907,3.0736971744267323,-9.788406077158964,-0.2700796878963451,0.4125
138,16917.9702,3.5078359,2,39,2,1,1,1,4,1,-38.07692308,n/a,n/a,14494358.0,14497867.0,0.0,0.0,0.0,14496141.0,14494874.0,14496868.0,14494874.0,14495867.0,14496874.0,14497867.0,3509.0,516.0,993.0,993.0,1994.0,-14496874.0,0.0,0.0,0.0,1.0,0.0,0.0,0.0,-1.0211519811002538,-6.829602910884069,-0.6196142529387973,-0.12461515701562499,14496119.0,14496176.0,57.0,225.05949221495825,5.8295048081866465,5.926386659231497,-3.0565775642368327,252.0,-3.03861121535625,0.0,0.0,0.0,0.0,0.0,0.0,0.0,0.0,0.0,0.0,0.0,0.0,0.0,-9.695511184204367,-0.3886512581922997,0.6208333333333333
139,16921.48636,3.9994294,2,40,2,2,1,2,1,1,-38.07692308,n/a,n/a,14497874.0,14501874.0,0.0,0.0,0.0,14499633.0,14498884.0,14500875.0,14498884.0,14499274.0,14500882.0,14501874.0,4000.0,1010.0,390.0,992.0,1991.0,-14500882.0,0.0,1.0,0.0,0.0,0.0,0.0,0.0,0.0,0.0,0.0,0.0,0.0,0.0,0.0,0.0,0.0,0.0,0.0,0.0,0.0,0.0,0.0,0.0,0.0,0.0,0.0,0.0,0.0,0.0,0.0,0.0,0.0,0.0,0.0,0.0,0.0
140,16925.50244,3.5078855,2,41,2,2,2,2,2,2,-38.07692308,n/a,n/a,14501890.0,14505400.0,0.0,0.0,0.0,14503306.0,14502406.0,14504399.0,14502407.0,14503000.0,14504406.0,14505400.0,3510.0,517.0,593.0,994.0,1993.0,-14504406.0,0.0,0.0,0.0,0.0,1.0,0.0,0.0,0.0,0.0,0.0,0.0,0.0,0.0,0.0,0.0,0.0,0.0,0.0,0.0,0.0,0.0,0.0,0.0,0.0,0.0,0.0,0.0,0.0,0.0,0.0,0.0,0.0,0.0,0.0,0.0,0.0
141,16929.01869,3.5911076,2,42,2,1,1,1,4,1,-38.07692308,n/a,n/a,14505406.0,14508999.0,0.0,0.0,0.0,14507516.0,14506006.0,14507999.0,14506006.0,14506999.0,14508006.0,14508999.0,3593.0,600.0,993.0,993.0,1993.0,-14508006.0,0.0,0.0,0.0,1.0,0.0,0.0,0.0,-0.5676912708489539,-9.17306016920567,-0.7269217492578078,-1.2426900380169184,14507494.0,14507563.0,69.0,271.1834228409085,8.62081149338591,8.675824665726633,3.0817286282672103,495.0,3.030847311161279,0.0,0.0,0.0,0.0,0.0,0.0,0.0,0.0,0.0,0.0,0.0,0.0,0.0,-9.385861541022367,-0.7838898258454882,0.7458333333333333
142,16947.2411,3.7327591,2,43,2,2,2,2,5,1,-38.07692308,n/a,n/a,14523628.0,14527363.0,0.0,0.0,0.0,14526161.0,14524371.0,14526362.0,14524371.0,14525561.0,14526370.0,14527363.0,3735.0,743.0,1190.0,993.0,1991.0,-14526370.0,0.0,0.0,0.0,1.0,0.0,0.0,0.0,-0.5642297387096302,8.086139077458277,-0.7857677956262986,-0.5192298208984342,14526142.0,14526200.0,58.0,270.69695291816123,8.654474169335893,8.705131884057192,-0.030802579413534918,581.0,-0.06804940905550685,0.0,0.0,0.0,0.0,0.0,0.0,0.0,0.0,0.0,0.0,0.0,0.0,0.0,9.034925278749428,1.231826869185767,0.8875
143,16950.98218,3.6745179,2,44,2,2,2,1,3,1,-38.07692308,n/a,n/a,14527369.0,14531045.0,0.0,0.0,0.0,14529286.0,14528053.0,14530046.0,14528053.0,14528846.0,14530052.0,14531045.0,3676.0,684.0,793.0,993.0,1993.0,-14530052.0,0.0,0.0,0.0,1.0,0.0,0.0,0.0,-0.15923047840885393,10.246135132395768,-0.6299988493567683,-2.288072744092434,14529269.0,14529340.0,71.0,338.1240509014977,10.536642849357634,10.592132802483668,0.15801944362313086,423.0,0.17541051362334265,1.0,9.896520386324157,-1.145767138115879,-2.3988417725507643,-0.08999983562239604,14529996.0,14530072.0,76.0,254.34083577265676,11.28108438325515,11.331638324022096,-2.9354713117144864,-2.9220291053899783,9.726476148522563,0.3491274014269828,0.6083333333333333
144,16954.66496,3.507856,2,45,2,1,1,1,5,2,-38.07692308,n/a,n/a,14531052.0,14534561.0,0.0,0.0,0.0,14533002.0,14531569.0,14533562.0,14531569.0,14532762.0,14533568.0,14534561.0,3509.0,517.0,1193.0,993.0,1993.0,-14533568.0,0.0,0.0,0.0,0.0,1.0,0.0,0.0,0.0,0.0,0.0,0.0,0.0,0.0,0.0,0.0,0.0,0.0,0.0,0.0,0.0,0.0,0.0,0.0,0.0,0.0,0.0,0.0,0.0,0.0,0.0,0.0,0.0,0.0,0.0,0.0,0.0
145,16958.18117,3.4995046,2,46,2,1,1,1,5,2,-38.07692308,n/a,n/a,14534568.0,14538070.0,0.0,0.0,0.0,14536718.0,14535078.0,14537069.0,14535078.0,14536268.0,14537076.0,14538070.0,3502.0,510.0,1190.0,994.0,1991.0,-14537076.0,0.0,0.0,0.0,1.0,0.0,0.0,0.0,0.3461532139322894,-8.248831088006456,-0.8030754563229131,-0.5226913530377578,14536695.0,14536775.0,80.0,284.8458646991444,8.599556406928702,8.667738684686931,-3.1089823896458886,427.0,-3.039579479266858,0.0,0.0,0.0,0.0,0.0,0.0,0.0,0.0,0.0,0.0,0.0,0.0,0.0,-9.231036719431366,-0.9815091096720804,0.8083333333333333
146,16961.68901,3.5077952,2,47,2,1,2,2,4,1,-38.07692308,n/a,n/a,14538076.0,14541585.0,0.0,0.0,0.0,14539926.0,14538593.0,14540585.0,14538593.0,14539586.0,14540592.0,14541585.0,3509.0,517.0,993.0,993.0,1992.0,-14540592.0,0.0,0.0,0.0,1.0,0.0,0.0,0.0,0.1488458819908829,-9.283829197664005,-0.7615370706510368,-0.1730766069661447,14539895.0,14539985.0,90.0,258.5486200947509,9.451012902100102,9.498617013038485,-3.0792880770865994,309.0,-3.036811089203572,1.0,0.1488458819908829,-9.283829197664005,-0.7615370706510368,-0.1730766069661447,14539895.0,14539985.0,90.0,258.5486200947509,9.451012902100102,9.498617013038485,-3.0792880770865994,-3.036811089203572,-10.376740399204767,0.48087359064471097,0.65
147,16965.20517,3.5078319,2,48,2,2,1,2,3,2,-38.07692308,n/a,n/a,14541592.0,14545101.0,0.0,0.0,0.0,14543335.0,14542109.0,14544102.0,14542109.0,14542902.0,14544109.0,14545101.0,3509.0,517.0,793.0,992.0,1993.0,-14544109.0,0.0,0.0,0.0,0.0,1.0,0.0,0.0,0.0,0.0,0.0,0.0,0.0,0.0,0.0,0.0,0.0,0.0,0.0,0.0,0.0,0.0,0.0,0.0,0.0,0.0,0.0,0.0,0.0,0.0,0.0,0.0,0.0,0.0,0.0,0.0,0.0
148,16968.72133,3.5078246,2,49,2,1,2,2,3,1,-38.07692308,n/a,n/a,14545108.0,14548618.0,0.0,0.0,0.0,14546975.0,14545625.0,14547618.0,14545625.0,14546418.0,14547625.0,14548618.0,3510.0,517.0,793.0,993.0,1993.0,-14547625.0,0.0,0.0,0.0,1.0,0.0,0.0,0.0,0.30461482826041314,-8.435753823529895,-0.5746143351276013,-0.33923014965364207,14546955.0,14547022.0,67.0,497.6540207132485,8.743537606939766,8.94118106969238,-3.114668468293645,537.0,2.932959905401993,1.0,-7.992677709696562,-33.26532385889301,-0.5676912708489539,18.726888873736858,14547598.0,14547731.0,133.0,37216.13518788232,31.796029097016806,117.56765797412089,-2.4895345093969707,-2.869003566745049,-10.418027018295698,0.5335720663318014,0.6666666666666666
149,16972.2375,3.5077967,2,50,2,1,2,1,3,2,-38.07692308,n/a,n/a,14548625.0,14552134.0,0.0,0.0,0.0,14550191.0,14549141.0,14551134.0,14549141.0,14549934.0,14551141.0,14552134.0,3509.0,516.0,793.0,993.0,1993.0,-14551141.0,0.0,0.0,0.0,1.0,0.0,0.0,0.0,0.1869227355234355,-7.182679189095006,-0.38423006746484206,-0.33576861751432235,14550168.0,14550217.0,49.0,349.0626165110231,7.369761260683492,7.517084266414651,-3.135016891161559,234.0,2.9408556449640817,0.0,0.0,0.0,0.0,0.0,0.0,0.0,0.0,0.0,0.0,0.0,0.0,0.0,-10.036125791704567,0.04611116622620565,0.5125
150,16975.75363,3.5078554,2,51,2,2,2,1,1,2,-38.07692308,n/a,n/a,14552141.0,14555650.0,0.0,0.0,0.0,14553457.0,14552658.0,14554651.0,14552658.0,14553051.0,14554657.0,14555650.0,3509.0,517.0,393.0,993.0,1993.0,-14554657.0,0.0,0.0,0.0,1.0,0.0,0.0,0.0,-0.03461532139322895,9.391136693983011,-0.10384596417968683,-2.6549951508606617,14553435.0,14553525.0,90.0,323.2931211373956,9.764894429950191,10.009374977118807,0.2643244305957529,384.0,0.28247995862993636,0.0,0.0,0.0,0.0,0.0,0.0,0.0,0.0,0.0,0.0,0.0,0.0,0.0,10.273523851477435,-0.3491274014269828,0.3875
151,16979.26982,3.507854,2,52,2,1,2,2,4,1,-38.07692308,n/a,n/a,14555657.0,14559166.0,0.0,0.0,0.0,14557423.0,14556173.0,14558166.0,14556173.0,14557166.0,14558173.0,14559167.0,3509.0,516.0,993.0,994.0,1993.0,-14558173.0,0.0,0.0,0.0,1.0,0.0,0.0,0.0,0.2769225711458316,-8.003062306114533,0.0692306427864579,0.3703839389075513,14557407.0,14557459.0,52.0,534.5879133869149,8.285459726256892,8.533115547357239,-3.1052374415160715,241.0,2.882741024379873,1.0,-9.512290318859312,-8.40806156641531,0.8480753741341092,1.2496131022955657,14557872.0,14557907.0,35.0,57.10362411905335,1.1749696527404876,1.1773535393775452,-0.34877100358390783,-2.78729545657503,-10.2941671610229,0.3754766392705261,0.6166666666666667
152,16982.78602,3.5078254,2,53,2,1,2,1,1,1,-38.07692308,n/a,n/a,14559173.0,14562683.0,0.0,0.0,0.0,14560523.0,14559690.0,14561682.0,14559690.0,14560083.0,14561689.0,14562683.0,3510.0,517.0,393.0,994.0,1992.0,-14561689.0,0.0,0.0,0.0,1.0,0.0,0.0,0.0,0.6853833635859315,-7.521909338748648,0.02769225711458158,-0.4257684531367144,14560499.0,14560563.0,64.0,593.0929564735684,8.219810223936806,8.729855036171104,3.08639782279572,416.0,2.8479330521925297,1.0,0.45346071025129997,-0.10038443204036315,0.1384612855729158,0.2007688640807263,14562061.0,14562086.0,25.0,36.12103212585619,0.5573389237973422,0.5048262204571436,-3.029563691163808,-2.791650004379156,-9.767762767613497,-0.2964289257398923,0.4041666666666667
153,16986.30215,3.6911845,2,54,2,2,1,1,4,2,-38.07692308,n/a,n/a,14562689.0,14566382.0,0.0,0.0,0.0,14564672.0,14563389.0,14565382.0,14563389.0,14564382.0,14565389.0,14566382.0,3693.0,700.0,993.0,993.0,1993.0,-14565389.0,0.0,1.0,0.0,0.0,0.0,0.0,0.0,0.0,0.0,0.0,0.0,0.0,0.0,0.0,0.0,0.0,0.0,0.0,0.0,0.0,0.0,0.0,0.0,0.0,0.0,0.0,0.0,0.0,0.0,0.0,0.0,0.0,0.0,0.0,0.0,0.0
154,16990.00165,3.5245852,2,55,2,1,1,2,4,2,-38.07692308,n/a,n/a,14566388.0,14569915.0,0.0,0.0,0.0,14568322.0,14566922.0,14568915.0,14566922.0,14567915.0,14568922.0,14569915.0,3527.0,534.0,993.0,993.0,1993.0,-14568922.0,0.0,0.0,0.0,1.0,0.0,0.0,0.0,0.3807685353255184,-8.02729303108979,-0.5849989315455684,0.24923031403124998,14568305.0,14568374.0,69.0,556.7094252503638,8.449345402976844,8.82589762339152,-3.0426985311300467,390.0,-2.878539657885517,0.0,0.0,0.0,0.0,0.0,0.0,0.0,0.0,0.0,0.0,0.0,0.0,0.0,-9.5200430530679,-0.6126197798624392,0.6916666666666667
155,16993.53445,3.5078533,2,56,2,2,1,2,1,2,-38.07692308,n/a,n/a,14569921.0,14573431.0,0.0,0.0,0.0,14571415.0,14570438.0,14572431.0,14570438.0,14570831.0,14572438.0,14573431.0,3510.0,517.0,393.0,993.0,1993.0,-14572438.0,0.0,0.0,0.0,1.0,0.0,0.0,0.0,-0.1903842676627592,7.878447149098904,-0.5157682887591105,-1.7723044553333236,14571392.0,14571466.0,74.0,319.15887389850366,8.166083735183534,8.15547917797555,0.1544863175307173,561.0,0.17017270883026978,1.0,-3.5134551214127376,-3.4130706893723746,-1.391535920007805,-1.5473048662773354,14572180.0,14572219.0,39.0,32.605027720897446,0.1853132451229164,0.33162128280595404,0.998336512976849,-0.6372381426656084,9.943230898749968,0.07246040406975286,0.475
156,16997.05063,3.5078675,2,57,2,1,2,1,2,2,-38.07692308,n/a,n/a,14573437.0,14576947.0,0.0,0.0,0.0,14574854.0,14573954.0,14575947.0,14573954.0,14574547.0,14575954.0,14576947.0,3510.0,517.0,593.0,993.0,1993.0,-14575954.0,0.0,0.0,0.0,1.0,0.0,0.0,0.0,0.2561533783098934,-7.431909503126255,-0.8411523098554617,-0.01384612855729079,14574829.0,14574897.0,68.0,309.31899033242365,7.732447632317368,7.768179440445928,-3.034395968335213,282.0,-2.991755256665907,1.0,-7.379986521036413,-8.567292044824164,-0.10384596417968683,-0.11769209273697762,14575113.0,14575148.0,35.0,84.06646733554042,1.187386256486461,1.2180757306371912,3.1299313746263726,3.0133603432598712,-9.850336005795365,-0.19103197436570743,0.4375
157,17000.56684,3.5078245,2,58,2,2,1,2,3,1,-38.07692308,n/a,n/a,14576954.0,14580463.0,0.0,0.0,0.0,14578630.0,14577471.0,14579464.0,14577471.0,14578263.0,14579470.0,14580463.0,3509.0,517.0,792.0,993.0,1993.0,-14579470.0,0.0,0.0,0.0,0.0,1.0,0.0,0.0,0.0,0.0,0.0,0.0,0.0,0.0,0.0,0.0,0.0,0.0,0.0,0.0,0.0,0.0,0.0,0.0,0.0,0.0,0.0,0.0,0.0,0.0,0.0,0.0,0.0,0.0,0.0,0.0,0.0
158,17004.08301,3.5078348,2,59,2,2,1,1,5,2,-38.07692308,n/a,n/a,14580470.0,14583979.0,0.0,0.0,0.0,14581253.0,14580986.0,14582979.0,14580986.0,14582179.0,14582986.0,14583979.0,3509.0,516.0,1193.0,993.0,1993.0,-14582986.0,0.0,0.0,0.0,0.0,1.0,0.0,0.0,0.0,0.0,0.0,0.0,0.0,0.0,0.0,0.0,0.0,0.0,0.0,0.0,0.0,0.0,0.0,0.0,0.0,0.0,0.0,0.0,0.0,0.0,0.0,0.0,0.0,0.0,0.0,0.0,0.0
159,17007.59916,3.5078348,2,60,2,1,2,2,5,1,-38.07692308,n/a,n/a,14583986.0,14587496.0,0.0,0.0,0.0,14586046.0,14584503.0,14586495.0,14584503.0,14585696.0,14586502.0,14587496.0,3510.0,517.0,1193.0,994.0,1992.0,-14586502.0,0.0,0.0,0.0,1.0,0.0,0.0,0.0,0.702691024282546,-9.069214205025983,-1.1146133488619736,-0.5296144173164012,14586026.0,14586095.0,69.0,286.0329122368783,9.789400163467466,9.800274240885821,-3.0817986252670213,330.0,-3.060974002294514,0.0,0.0,0.0,0.0,0.0,0.0,0.0,0.0,0.0,0.0,0.0,0.0,0.0,-10.655425078068566,0.8365883015325786,0.7625
160,17011.11533,3.999438,2,61,2,1,1,2,2,1,-38.07692308,n/a,n/a,14587502.0,14591503.0,0.0,0.0,0.0,14588778.0,14588512.0,14590503.0,14588512.0,14589103.0,14590510.0,14591503.0,4001.0,1010.0,591.0,993.0,1991.0,-14590510.0,0.0,1.0,0.0,0.0,0.0,0.0,0.0,0.0,0.0,0.0,0.0,0.0,0.0,0.0,0.0,0.0,0.0,0.0,0.0,0.0,0.0,0.0,0.0,0.0,0.0,0.0,0.0,0.0,0.0,0.0,0.0,0.0,0.0,0.0,0.0,0.0
161,17015.12311,3.5077863,2,62,2,1,1,2,1,2,-38.07692308,n/a,n/a,14591510.0,14595019.0,0.0,0.0,0.0,14592793.0,14592027.0,14594020.0,14592027.0,14592419.0,14594026.0,14595019.0,3509.0,517.0,392.0,993.0,1993.0,-14594026.0,0.0,0.0,0.0,1.0,0.0,0.0,0.0,-0.747690942093746,-11.703440163050706,-0.9692289990104104,0.024230724975261835,14592775.0,14592850.0,75.0,351.0465033006889,11.000700123886695,11.219416810587223,-3.0511606736268546,356.0,-3.0327752940536605,1.0,-11.232671792102792,-11.277671709913989,-0.2596149104492171,-0.1349997534335921,14593232.0,14593251.0,19.0,34.926422827332345,0.13249124484675684,0.18437330305711783,-1.9173351912288252,0.8784618921218559,-10.304488815795631,0.3886512581922997,0.375
162,17018.63924,3.507853,2,63,2,2,2,2,5,1,-38.07692308,n/a,n/a,14595026.0,14598535.0,0.0,0.0,0.0,14595653.0,14595543.0,14597536.0,14595543.0,14596735.0,14597542.0,14598536.0,3509.0,517.0,1192.0,994.0,1993.0,-14597542.0,0.0,1.0,0.0,0.0,0.0,0.0,0.0,0.0,0.0,0.0,0.0,0.0,0.0,0.0,0.0,0.0,0.0,0.0,0.0,0.0,0.0,0.0,0.0,0.0,0.0,0.0,0.0,0.0,0.0,0.0,0.0,0.0,0.0,0.0,0.0,0.0
163,17022.15543,3.5078099,2,64,2,1,2,2,5,2,-38.07692308,n/a,n/a,14598542.0,14602052.0,0.0,0.0,0.0,14600575.0,14599059.0,14601051.0,14599059.0,14600252.0,14601058.0,14602052.0,3510.0,517.0,1193.0,994.0,1992.0,-14601058.0,0.0,0.0,0.0,1.0,0.0,0.0,0.0,-0.44999917811197626,-8.802676230298118,-0.7788447313476512,-0.5607682065703105,14600556.0,14600611.0,55.0,286.74939824775646,8.355523401246385,8.469893825171168,-3.1154900050044216,304.0,-3.0614041690254448,1.0,-0.44999917811197626,-8.802676230298118,-0.7788447313476512,-0.5607682065703105,14600556.0,14600611.0,55.0,286.74939824775646,8.355523401246385,8.469893825171168,-3.1154900050044216,-3.0614041690254448,-10.624460113750365,0.7970644447672618,0.75
164,17025.67157,3.749517,2,65,2,2,1,2,5,2,-38.07692308,n/a,n/a,14602058.0,14605809.0,0.0,0.0,0.0,14604335.0,14602818.0,14604809.0,14602818.0,14604008.0,14604816.0,14605809.0,3751.0,760.0,1190.0,993.0,1991.0,-14604816.0,0.0,0.0,0.0,0.0,1.0,0.0,0.0,0.0,0.0,0.0,0.0,0.0,0.0,0.0,0.0,0.0,0.0,0.0,0.0,0.0,0.0,0.0,0.0,0.0,0.0,0.0,0.0,0.0,0.0,0.0,0.0,0.0,0.0,0.0,0.0,0.0
165,17029.42941,3.5079145,2,66,2,1,2,1,2,1,-38.07692308,n/a,n/a,14605816.0,14609326.0,0.0,0.0,0.0,14607192.0,14606333.0,14608326.0,14606333.0,14606925.0,14608332.0,14609326.0,3510.0,517.0,592.0,994.0,1993.0,-14608332.0,0.0,0.0,0.0,1.0,0.0,0.0,0.0,-0.18346120338411182,-9.096906462140565,-0.7373063456757749,-0.48115296736588153,14607175.0,14607227.0,52.0,366.7273262379168,8.917125149624596,8.897365885759712,-3.1128626967913804,250.0,-3.098783932037726,1.0,-0.18346120338411182,-9.096906462140565,-0.7373063456757749,-0.48115296736588153,14607175.0,14607227.0,52.0,366.7273262379168,8.917125149624596,8.897365885759712,-3.1128626967913804,-3.098783932037726,-9.809049386704434,-0.24373045005279792,0.42083333333333334
166,17032.94555,3.5078709,2,67,2,1,2,1,3,1,-38.07692308,n/a,n/a,14609332.0,14612841.0,0.0,0.0,0.0,14610891.0,14609849.0,14611842.0,14609849.0,14610642.0,14611849.0,14612841.0,3509.0,517.0,793.0,992.0,1993.0,-14611849.0,0.0,0.0,0.0,1.0,0.0,0.0,0.0,-0.702691024282546,-9.77190522930853,-1.2669207629921801,-3.5169166535520615,14610882.0,14610988.0,106.0,27865.89303168473,9.344149389012435,85.37747786457719,2.898410933721985,240.0,-2.8867411673835113,1.0,-9.858443532791602,-9.931135707717383,-1.1492286702552026,-1.3049976165247328,14611045.0,14611078.0,33.0,35.63865462760846,0.1718956570636973,0.39558512870865664,2.007423486608442,2.568152127434962,-10.046447446477297,0.059285785147979254,0.5166666666666667
167,17036.46174,3.5078865,2,68,2,1,2,1,1,1,-38.07692308,n/a,n/a,14612848.0,14616358.0,0.0,0.0,0.0,14614215.0,14613365.0,14615358.0,14613365.0,14613758.0,14615365.0,14616358.0,3510.0,517.0,393.0,993.0,1993.0,-14615365.0,0.0,0.0,0.0,1.0,0.0,0.0,0.0,-0.21461499263802103,-9.297675326221295,-1.280766891549471,-2.243072826281234,14614206.0,14614274.0,68.0,298.2709178033068,9.133893897759808,9.135733567692418,3.036041272368788,448.0,3.0341573133969657,1.0,-0.21461499263802103,-9.297675326221295,-1.280766891549471,-2.243072826281234,14614206.0,14614274.0,68.0,298.2709178033068,9.133893897759808,9.135733567692418,3.036041272368788,3.0341573133969657,-9.809049386704434,-0.24373045005279792,0.42083333333333334
168,17039.97795,3.9910999,2,69,2,1,1,2,4,1,-38.07692308,n/a,n/a,14616365.0,14620357.0,0.0,0.0,0.0,14618608.0,14617364.0,14619357.0,14617364.0,14618358.0,14619364.0,14620357.0,3992.0,999.0,994.0,993.0,1993.0,-14619364.0,0.0,1.0,0.0,0.0,0.0,0.0,0.0,0.0,0.0,0.0,0.0,0.0,0.0,0.0,0.0,0.0,0.0,0.0,0.0,0.0,0.0,0.0,0.0,0.0,0.0,0.0,0.0,0.0,0.0,0.0,0.0,0.0,0.0,0.0,0.0,0.0
169,17043.97737,3.5078442,2,70,2,2,1,1,3,2,-38.07692308,n/a,n/a,14620364.0,14623873.0,0.0,0.0,0.0,14622247.0,14620881.0,14622874.0,14620881.0,14621673.0,14622880.0,14623873.0,3509.0,517.0,792.0,993.0,1993.0,-14622880.0,0.0,0.0,0.0,1.0,0.0,0.0,0.0,-0.07269217492578157,7.099602417751253,-1.1180748810012933,-1.9107657409062393,14622230.0,14622291.0,61.0,290.78815872341704,7.215966222448737,7.314879216219561,0.11007450152803402,557.0,0.1276419463765565,0.0,0.0,0.0,0.0,0.0,0.0,0.0,0.0,0.0,0.0,0.0,0.0,0.0,10.438670327841168,-0.5599213041753487,0.675
170,17047.49354,3.7661368,2,71,2,2,1,2,1,1,-38.07692308,n/a,n/a,14623880.0,14627647.0,0.0,0.0,0.0,14625513.0,14624657.0,14626648.0,14624657.0,14625047.0,14626655.0,14627647.0,3767.0,777.0,390.0,992.0,1991.0,-14626655.0,0.0,0.0,0.0,0.0,1.0,0.0,0.0,0.0,0.0,0.0,0.0,0.0,0.0,0.0,0.0,0.0,0.0,0.0,0.0,0.0,0.0,0.0,0.0,0.0,0.0,0.0,0.0,0.0,0.0,0.0,0.0,0.0,0.0,0.0,0.0,0.0
171,17051.26801,3.7579857,2,72,2,1,2,2,1,2,-38.07692308,n/a,n/a,14627655.0,14631414.0,0.0,0.0,0.0,14629298.0,14628421.0,14630414.0,14628421.0,14628815.0,14630421.0,14631415.0,3759.0,766.0,394.0,994.0,1993.0,-14630421.0,0.0,0.0,0.0,1.0,0.0,0.0,0.0,-0.024230724975261835,-7.4596017602408375,-1.2842284236887946,-1.0246135132395775,14629272.0,14629330.0,58.0,338.07827461861365,7.439902037916482,7.531342590060884,-3.1066906313608977,457.0,-3.0292097210034306,1.0,0.19384579980208289,-0.017307660696614473,-1.4192281771223867,-1.4815357556301971,14630395.0,14630414.0,19.0,29.417366542227825,0.2201545325903646,0.22446641392496344,2.8546539006590317,0.46364760900079827,-9.819371041477163,-0.2305558311310243,0.425
172,17055.03415,3.9994351,2,73,2,2,1,2,3,2,-38.07692308,n/a,n/a,14631421.0,14635422.0,0.0,0.0,0.0,14632437.0,14632430.0,14634422.0,14632430.0,14633222.0,14634429.0,14635422.0,4001.0,1009.0,792.0,993.0,1992.0,-14634429.0,0.0,0.0,0.0,0.0,1.0,0.0,0.0,0.0,0.0,0.0,0.0,0.0,0.0,0.0,0.0,0.0,0.0,0.0,0.0,0.0,0.0,0.0,0.0,0.0,0.0,0.0,0.0,0.0,0.0,0.0,0.0,0.0,0.0,0.0,0.0,0.0
173,17078.42248,3.5078201,2,74,2,1,1,2,5,2,-38.07692308,n/a,n/a,14654809.0,14658318.0,0.0,0.0,0.0,14655625.0,14655326.0,14657318.0,14655326.0,14656518.0,14657325.0,14658318.0,3509.0,517.0,1192.0,993.0,1992.0,-14657325.0,0.0,0.0,0.0,1.0,0.0,0.0,0.0,-0.7511524742330696,-8.56383051268484,-1.2288439094596275,-0.6023065922421829,14656830.0,14656878.0,48.0,313.51930161373207,7.837760339687138,7.84362101664895,-3.0615689615739576,312.0,-3.047896176713312,0.0,0.0,0.0,0.0,0.0,0.0,0.0,0.0,0.0,0.0,0.0,0.0,0.0,-9.375539886249632,-0.7970644447672618,0.75
174,17081.93865,3.5328822,2,75,2,1,2,2,1,1,-38.07692308,n/a,n/a,14658325.0,14661860.0,0.0,0.0,0.0,14659318.0,14658868.0,14660859.0,14658868.0,14659258.0,14660866.0,14661860.0,3535.0,543.0,390.0,994.0,1991.0,-14660866.0,0.0,0.0,0.0,1.0,0.0,0.0,0.0,-0.6438449779140591,-9.07959880144395,-1.3534590664752524,-3.4511475429049274,14659767.0,14659847.0,80.0,390.2876421081203,8.692654342336697,8.981325869254638,2.8978695432124826,509.0,2.878011050715765,1.0,-0.6438449779140591,-9.07959880144395,-1.3534590664752524,-3.4511475429049274,14659767.0,14659847.0,80.0,390.2876421081203,8.692654342336697,8.981325869254638,2.8978695432124826,2.878011050715765,-9.881300970113564,-0.1515081176003866,0.45
175,17112.63433,3.5078052,2,76,2,1,2,2,5,2,-38.07692308,n/a,n/a,14689020.0,14692530.0,0.0,0.0,0.0,14691220.0,14689537.0,14691530.0,14689537.0,14690730.0,14691537.0,14692530.0,3510.0,517.0,1193.0,993.0,1993.0,-14691537.0,0.0,0.0,0.0,1.0,0.0,0.0,0.0,-0.6680757028893171,-8.286907941539008,-1.2080747166236894,-0.6715372350286407,14691209.0,14691276.0,67.0,256.9506029886482,7.637701038260415,7.7055369302459535,-3.0712861894711687,479.0,3.0619955217664856,1.0,-3.8457622067877364,-3.9703773638033613,-0.6334603814960881,-0.6299988493567683,14692420.0,14692441.0,21.0,25.547941598872512,0.12466322458038864,0.15945607069918027,-3.1138220169963975,2.668236611754876,-10.841214863977763,1.0737314421244917,0.8375
176,17116.15049,3.7245143,2,77,2,1,2,2,1,2,-38.07692308,n/a,n/a,14692537.0,14696263.0,0.0,0.0,0.0,14693420.0,14693270.0,14695263.0,14693270.0,14693663.0,14695270.0,14696263.0,3726.0,733.0,393.0,993.0,1993.0,-14695270.0,0.0,0.0,0.0,0.0,1.0,0.0,0.0,0.0,0.0,0.0,0.0,0.0,0.0,0.0,0.0,0.0,0.0,0.0,0.0,0.0,0.0,0.0,0.0,0.0,0.0,0.0,0.0,0.0,0.0,0.0,0.0,0.0,0.0,0.0,0.0,0.0
177,17119.88329,3.4995224,2,78,2,1,1,1,5,1,-38.07692308,n/a,n/a,14696269.0,14699770.0,0.0,0.0,0.0,14698546.0,14696780.0,14698771.0,14696780.0,14697969.0,14698777.0,14699771.0,3501.0,511.0,1189.0,994.0,1991.0,-14698777.0,0.0,0.0,0.0,1.0,0.0,0.0,0.0,-0.8688445669700473,-9.861905064930925,-0.9657674668710867,-2.0076886408072787,14698538.0,14698602.0,64.0,275.7331197803174,9.053216933923595,9.283347126142015,3.026248560515024,569.0,3.0261176809322596,1.0,-0.8688445669700473,-9.861905064930925,-0.9657674668710867,-2.0076886408072787,14698538.0,14698602.0,64.0,275.7331197803174,9.053216933923595,9.283347126142015,3.026248560515024,3.0261176809322596,-9.055568588294898,-1.20547763134222,0.8791666666666667
178,17123.39114,3.974419,2,79,2,2,2,2,1,1,-38.07692308,n/a,n/a,14699777.0,14703753.0,0.0,0.0,0.0,14701094.0,14700760.0,14702753.0,14700761.0,14701154.0,14702760.0,14703754.0,3976.0,984.0,393.0,994.0,1993.0,-14702760.0,0.0,1.0,0.0,0.0,0.0,0.0,0.0,0.0,0.0,0.0,0.0,0.0,0.0,0.0,0.0,0.0,0.0,0.0,0.0,0.0,0.0,0.0,0.0,0.0,0.0,0.0,0.0,0.0,0.0,0.0,0.0,0.0,0.0,0.0,0.0,0.0
179,17127.37388,3.7495054,2,80,2,2,1,2,5,2,-38.07692308,n/a,n/a,14703760.0,14707511.0,0.0,0.0,0.0,14705020.0,14704520.0,14706511.0,14704520.0,14705711.0,14706518.0,14707511.0,3751.0,760.0,1191.0,993.0,1991.0,-14706518.0,0.0,0.0,0.0,0.0,1.0,0.0,0.0,0.0,0.0,0.0,0.0,0.0,0.0,0.0,0.0,0.0,0.0,0.0,0.0,0.0,0.0,0.0,0.0,0.0,0.0,0.0,0.0,0.0,0.0,0.0,0.0,0.0,0.0,0.0,0.0,0.0
180,17131.13172,3.6245042,2,81,2,1,1,1,1,2,-38.07692308,n/a,n/a,14707518.0,14711144.0,0.0,0.0,0.0,14708251.0,14708151.0,14710144.0,14708151.0,14708544.0,14710151.0,14711144.0,3626.0,633.0,393.0,993.0,1993.0,-14710151.0,0.0,1.0,0.0,0.0,0.0,0.0,0.0,0.0,0.0,0.0,0.0,0.0,0.0,0.0,0.0,0.0,0.0,0.0,0.0,0.0,0.0,0.0,0.0,0.0,0.0,0.0,0.0,0.0,0.0,0.0,0.0,0.0,0.0,0.0,0.0,0.0
181,17134.76456,3.9327996,2,82,2,1,2,1,3,2,-38.07692308,n/a,n/a,14711150.0,14715085.0,0.0,0.0,0.0,14712334.0,14712093.0,14714085.0,14712094.0,14712885.0,14714092.0,14715085.0,3935.0,944.0,791.0,993.0,1992.0,-14714092.0,0.0,1.0,0.0,0.0,0.0,0.0,0.0,0.0,0.0,0.0,0.0,0.0,0.0,0.0,0.0,0.0,0.0,0.0,0.0,0.0,0.0,0.0,0.0,0.0,0.0,0.0,0.0,0.0,0.0,0.0,0.0,0.0,0.0,0.0,0.0,0.0
182,17138.70569,3.5078347,2,83,2,2,2,2,3,1,-38.07692308,n/a,n/a,14715092.0,14718601.0,0.0,0.0,0.0,14716868.0,14715608.0,14717602.0,14715608.0,14716401.0,14717608.0,14718601.0,3509.0,516.0,793.0,993.0,1994.0,-14717608.0,0.0,0.0,0.0,0.0,1.0,0.0,0.0,0.0,0.0,0.0,0.0,0.0,0.0,0.0,0.0,0.0,0.0,0.0,0.0,0.0,0.0,0.0,0.0,0.0,0.0,0.0,0.0,0.0,0.0,0.0,0.0,0.0,0.0,0.0,0.0,0.0
183,17142.22186,3.5079675,2,84,2,2,2,2,5,1,-38.07692308,n/a,n/a,14718608.0,14722118.0,0.0,0.0,0.0,14720757.0,14719124.0,14721117.0,14719124.0,14720317.0,14721124.0,14722118.0,3510.0,516.0,1193.0,994.0,1993.0,-14721124.0,0.0,0.0,0.0,0.0,1.0,0.0,0.0,0.0,0.0,0.0,0.0,0.0,0.0,0.0,0.0,0.0,0.0,0.0,0.0,0.0,0.0,0.0,0.0,0.0,0.0,0.0,0.0,0.0,0.0,0.0,0.0,0.0,0.0,0.0,0.0,0.0
184,17145.73821,3.5076622,2,85,2,2,1,2,1,2,-38.07692308,n/a,n/a,14722124.0,14725634.0,0.0,0.0,0.0,14722841.0,14722640.0,14724633.0,14722640.0,14723034.0,14724640.0,14725634.0,3510.0,516.0,394.0,994.0,1993.0,-14724640.0,0.0,0.0,0.0,0.0,1.0,0.0,0.0,0.0,0.0,0.0,0.0,0.0,0.0,0.0,0.0,0.0,0.0,0.0,0.0,0.0,0.0,0.0,0.0,0.0,0.0,0.0,0.0,0.0,0.0,0.0,0.0,0.0,0.0,0.0,0.0,0.0
185,17168.35158,3.6827225,2,86,2,1,2,1,3,2,-38.07692308,n/a,n/a,14744737.0,14748422.0,0.0,0.0,0.0,14745664.0,14745430.0,14747422.0,14745430.0,14746222.0,14747428.0,14748422.0,3685.0,693.0,792.0,994.0,1992.0,-14747428.0,0.0,0.0,0.0,0.0,1.0,0.0,0.0,0.0,0.0,0.0,0.0,0.0,0.0,0.0,0.0,0.0,0.0,0.0,0.0,0.0,0.0,0.0,0.0,0.0,0.0,0.0,0.0,0.0,0.0,0.0,0.0,0.0,0.0,0.0,0.0,0.0
