,onset,duration,run_number,trial_number,task,ext_mot_pos,ext_mot_ver_dir,staircase_num,fix_off_prct,trial_type,ext_mot_ori,direction_report,response_duration,trial_onset,trial_offset,button_press_onset,button_left,button_right,fix_break,motion_onset,motion_offset,fixation_onset,fixation_offset,response_onset,response_offset,trial_duration,fix_check_duration,fixation_duration,response_duration,motion_duration,reaction_time
0,5404.696429,3.999191701,1,1,1,2,1,1,5,2,-15,n/a,n/a,2981157.0,2985156.0,0.0,0.0,0.0,0.0,2982165.0,2984156.0,2982165.0,2985156.0,2984163.0,2985157.0,3999.0,1008.0,2991.0,994.0,1991.0,-2984163.0
1,5408.703983,3.5078052,1,2,1,1,1,2,3,1,-65,1.0,-0.4245649,2985163.0,2988672.0,2987256.0,2987256.0,0.0,0.0,2985681.0,2987672.0,2985682.0,2988672.0,2987679.0,2988672.0,3509.0,519.0,2990.0,993.0,1991.0,-423.0
2,5412.220128,3.5078233,1,3,1,1,1,1,1,2,-15,2.0,-0.9986665,2988679.0,2992188.0,2990198.0,0.0,2990198.0,0.0,2989197.0,2991189.0,2989197.0,2992188.0,2991195.0,2992188.0,3509.0,518.0,2991.0,993.0,1992.0,-997.0
3,5415.736285,3.6161231,1,4,1,2,2,2,2,1,-60,1.0,-0.4569491,2992195.0,2995813.0,2994364.0,2994364.0,0.0,0.0,2992821.0,2994813.0,2992821.0,2995813.0,2994820.0,2995813.0,3618.0,626.0,2992.0,993.0,1992.0,-456.0
4,5419.369188,3.5162271,1,5,1,2,2,1,4,1,-20,2.0,-1.0400582,2995831.0,2999347.0,2997314.0,0.0,2997314.0,0.0,2996354.0,2998346.0,2996355.0,2999350.0,2998353.0,2999352.0,3516.0,524.0,2995.0,999.0,1992.0,-1039.0
5,5422.910274,3.9911557,1,6,1,1,2,2,2,1,-55,1.0,-1.2155019,2999369.0,3003362.0,3001154.0,3001154.0,0.0,0.0,3000370.0,3002361.0,3000371.0,3003362.0,3002368.0,3003363.0,3993.0,1002.0,2991.0,995.0,1991.0,-1214.0
6,5426.909714,3.5077938,1,7,1,2,2,1,2,1,-25,2.0,-0.5993898,3003368.0,3006877.0,3005287.0,0.0,3005287.0,0.0,3003887.0,3005878.0,3003887.0,3006877.0,3005884.0,3006877.0,3509.0,519.0,2990.0,993.0,1991.0,-597.0
7,5430.425846,3.9994179,1,8,1,2,2,1,2,2,-30,2.0,-0.7495692,3006884.0,3010885.0,3009144.0,0.0,3009144.0,0.0,3007894.0,3009886.0,3007894.0,3010885.0,3009892.0,3010885.0,4001.0,1010.0,2991.0,993.0,1992.0,-748.0
8,5434.433632,3.5077939,1,9,1,2,1,2,5,2,-50,2.0,0.7507229,3010892.0,3014402.0,3014162.0,0.0,3014162.0,0.0,3011410.0,3013402.0,3011410.0,3014402.0,3013409.0,3014402.0,3510.0,518.0,2992.0,993.0,1992.0,753.0
9,5437.949757,3.9994393,1,10,1,1,1,2,2,1,-55,2.0,0.8417758,3014408.0,3018410.0,3018260.0,0.0,3018260.0,0.0,3015418.0,3017409.0,3015418.0,3018410.0,3017416.0,3018410.0,4002.0,1010.0,2992.0,994.0,1991.0,844.0
10,5441.957502,3.4995037,1,11,1,2,2,2,4,1,-60,1.0,-0.8411345,3018416.0,3021917.0,3020085.0,3020085.0,0.0,0.0,3018925.0,3020917.0,3018925.0,3021917.0,3020924.0,3021917.0,3501.0,509.0,2992.0,993.0,1992.0,-839.0
11,5445.465465,3.5077005,1,12,1,1,2,1,2,1,-35,1.0,-0.2490189,3021924.0,3025433.0,3024193.0,3024193.0,0.0,0.0,3022442.0,3024434.0,3022442.0,3025433.0,3024440.0,3025433.0,3509.0,518.0,2991.0,993.0,1992.0,-247.0
12,5448.981501,3.5078051,1,13,1,2,2,1,1,1,-30,2.0,-0.8328461,3025440.0,3028950.0,3027126.0,0.0,3027126.0,0.0,3025958.0,3027949.0,3025958.0,3028950.0,3027956.0,3028950.0,3510.0,518.0,2992.0,994.0,1991.0,-830.0
13,5452.497833,3.540979,1,14,1,1,2,1,3,1,-35,1.0,-0.3412592,3028956.0,3032499.0,3031166.0,3031166.0,0.0,0.0,3029507.0,3031499.0,3029507.0,3032499.0,3031506.0,3032499.0,3543.0,551.0,2992.0,993.0,1992.0,-340.0
14,5456.047135,3.507823,1,15,1,2,1,2,5,1,-55,1.0,-0.2079638,3032505.0,3036015.0,3034816.0,3034816.0,0.0,0.0,3033024.0,3035015.0,3033024.0,3036015.0,3035022.0,3036015.0,3510.0,519.0,2991.0,993.0,1991.0,-206.0
15,5459.563289,3.6577949,1,16,1,1,1,2,1,1,-50,2.0,-0.0913907,3036022.0,3039681.0,3038598.0,0.0,3038598.0,0.0,3036690.0,3038681.0,3036690.0,3039681.0,3038688.0,3039681.0,3659.0,668.0,2991.0,993.0,1991.0,-90.0
16,5598.643305,3.6994148,1,17,1,2,2,2,5,2,-55,1.0,-0.0497982,3175101.0,3178802.0,3177761.0,3177761.0,0.0,0.0,3175811.0,3177801.0,3175811.0,3178802.0,3177809.0,3178802.0,3701.0,710.0,2991.0,993.0,1990.0,-48.0
17,5602.351054,3.5078199,1,18,1,1,2,2,3,2,-50,1.0,-0.9496218,3178809.0,3182318.0,3180376.0,3180376.0,0.0,0.0,3179327.0,3181318.0,3179327.0,3182318.0,3181325.0,3182319.0,3509.0,518.0,2991.0,994.0,1991.0,-949.0
18,5605.867214,3.5078334,1,19,1,1,1,1,1,1,-30,2.0,-0.9163255,3182325.0,3185834.0,3183927.0,0.0,3183927.0,0.0,3182843.0,3184834.0,3182843.0,3185834.0,3184841.0,3185834.0,3509.0,518.0,2991.0,993.0,1991.0,-914.0
19,5609.383511,3.5076964,1,20,1,1,1,1,2,2,-35,2.0,-0.9163186,3185841.0,3189350.0,3187443.0,0.0,3187443.0,0.0,3186359.0,3188350.0,3186360.0,3189350.0,3188357.0,3189350.0,3509.0,519.0,2990.0,993.0,1991.0,-914.0
20,5612.899554,3.6161038,1,21,1,2,1,2,5,2,-45,1.0,-0.8246559,3189357.0,3192974.0,3191158.0,3191158.0,0.0,0.0,3189984.0,3191975.0,3189984.0,3192974.0,3191982.0,3192974.0,3617.0,627.0,2990.0,992.0,1991.0,-824.0
21,5616.524001,3.5078668,1,22,1,1,2,2,5,2,-40,1.0,-0.4997324,3192981.0,3196491.0,3194999.0,3194999.0,0.0,0.0,3193500.0,3195491.0,3193500.0,3196491.0,3195498.0,3196491.0,3510.0,519.0,2991.0,993.0,1991.0,-499.0
22,5620.040201,3.5078347,1,23,1,2,1,2,1,1,-35,2.0,-0.9245796,3196498.0,3200007.0,3198091.0,0.0,3198091.0,0.0,3197016.0,3199007.0,3197016.0,3200007.0,3199014.0,3200007.0,3509.0,518.0,2991.0,993.0,1991.0,-923.0
23,5623.556361,3.5078315,1,24,1,2,1,2,4,2,-40,2.0,-0.5247038,3200014.0,3203523.0,3202007.0,0.0,3202007.0,0.0,3200532.0,3202524.0,3200532.0,3203523.0,3202530.0,3203523.0,3509.0,518.0,2991.0,993.0,1992.0,-523.0
24,5627.072522,3.5079068,1,25,1,1,1,1,1,2,-40,2.0,-0.8239883,3203530.0,3207039.0,3205224.0,0.0,3205224.0,0.0,3204048.0,3206040.0,3204048.0,3207040.0,3206046.0,3207040.0,3509.0,518.0,2992.0,994.0,1992.0,-822.0
25,5630.588687,3.5078168,1,26,1,1,2,2,4,1,-45,1.0,-0.8246779,3207046.0,3210556.0,3208740.0,3208740.0,0.0,0.0,3207564.0,3209556.0,3207564.0,3210556.0,3209562.0,3210556.0,3510.0,518.0,2992.0,994.0,1992.0,-822.0
26,5634.10486,3.5078158,1,27,1,1,2,2,3,1,-40,1.0,-0.2247299,3210562.0,3214072.0,3212856.0,3212856.0,0.0,0.0,3211080.0,3213071.0,3211080.0,3214072.0,3213078.0,3214072.0,3510.0,518.0,2992.0,994.0,1991.0,-222.0
27,5637.621007,3.4995009,1,28,1,2,2,1,4,1,-45,1.0,-0.4997046,3214078.0,3217579.0,3216088.0,3216088.0,0.0,0.0,3214589.0,3216580.0,3214589.0,3217579.0,3216586.0,3217579.0,3501.0,511.0,2990.0,993.0,1991.0,-498.0
28,5641.128839,3.507889,1,29,1,2,1,2,2,2,-35,2.0,-0.5415041,3217586.0,3221096.0,3219562.0,0.0,3219562.0,0.0,3218104.0,3220096.0,3218104.0,3221096.0,3220103.0,3221096.0,3510.0,518.0,2992.0,993.0,1992.0,-541.0
29,5644.645085,3.9995187,1,30,1,2,1,2,2,2,-40,1.0,-0.6746717,3221102.0,3225104.0,3223438.0,3223438.0,0.0,0.0,3222112.0,3224103.0,3222112.0,3225104.0,3224110.0,3225104.0,4002.0,1010.0,2992.0,994.0,1991.0,-672.0
30,5648.65292,3.5076538,1,31,1,1,1,1,5,2,-40,2.0,-0.7657711,3225110.0,3228619.0,3226862.0,0.0,3226862.0,0.0,3225628.0,3227620.0,3225628.0,3228619.0,3227626.0,3228620.0,3509.0,518.0,2991.0,994.0,1992.0,-764.0
31,5652.169031,3.5076905,1,32,1,2,1,1,2,1,-45,1.0,-0.7164671,3228626.0,3232135.0,3230428.0,3230428.0,0.0,0.0,3229145.0,3231136.0,3229145.0,3232135.0,3231143.0,3232136.0,3509.0,519.0,2990.0,993.0,1991.0,-715.0
32,5655.685086,3.5078408,1,33,1,1,1,1,1,2,-40,2.0,-0.8413278,3232142.0,3235652.0,3233819.0,0.0,3233819.0,0.0,3232660.0,3234652.0,3232660.0,3235652.0,3234658.0,3235652.0,3510.0,518.0,2992.0,994.0,1992.0,-839.0
33,5659.201263,3.5078175,1,34,1,2,2,2,3,1,-35,1.0,-0.6081383,3235659.0,3239168.0,3237569.0,3237569.0,0.0,0.0,3236176.0,3238168.0,3236176.0,3239168.0,3238175.0,3239168.0,3509.0,517.0,2992.0,993.0,1992.0,-606.0
34,5662.717409,3.5078309,1,35,1,2,1,1,3,2,-45,1.0,-0.2081144,3239175.0,3242684.0,3241485.0,3241485.0,0.0,0.0,3239693.0,3241684.0,3239693.0,3242684.0,3241691.0,3242684.0,3509.0,518.0,2991.0,993.0,1991.0,-206.0
35,5666.233576,3.5078408,1,36,1,1,2,1,4,1,-40,1.0,-0.6074407,3242691.0,3246200.0,3244601.0,3244601.0,0.0,0.0,3243209.0,3245200.0,3243209.0,3246201.0,3245207.0,3246201.0,3509.0,518.0,2992.0,994.0,1991.0,-606.0
36,5669.749746,3.7744634,1,37,1,1,1,1,1,1,-35,2.0,-1.0245021,3246207.0,3249983.0,3247967.0,0.0,3247967.0,0.0,3246992.0,3248983.0,3246992.0,3249983.0,3248990.0,3249983.0,3776.0,785.0,2991.0,993.0,1991.0,-1023.0
37,5673.532541,3.5078173,1,38,1,2,1,1,2,2,-40,1.0,-0.0580714,3249990.0,3253499.0,3252449.0,3252449.0,0.0,0.0,3250507.0,3252499.0,3250507.0,3253499.0,3252506.0,3253499.0,3509.0,517.0,2992.0,993.0,1992.0,-57.0
38,5677.048673,3.5078338,1,39,1,1,1,2,5,1,-30,2.0,-0.7077956,3253506.0,3257015.0,3255316.0,0.0,3255316.0,0.0,3254024.0,3256016.0,3254024.0,3257015.0,3256022.0,3257015.0,3509.0,518.0,2991.0,993.0,1992.0,-706.0
39,5680.564837,3.5079325,1,40,1,2,1,1,4,2,-35,1.0,-0.0831475,3257022.0,3260532.0,3259457.0,3259457.0,0.0,0.0,3257540.0,3259531.0,3257540.0,3260532.0,3259538.0,3260532.0,3510.0,518.0,2992.0,994.0,1991.0,-81.0
40,5684.081016,3.5078155,1,41,1,1,2,2,2,1,-35,2.0,-0.2825668,3260538.0,3264048.0,3262773.0,0.0,3262773.0,0.0,3261056.0,3263047.0,3261056.0,3264048.0,3263054.0,3264048.0,3510.0,518.0,2992.0,994.0,1991.0,-281.0
41,5687.597179,3.507832,1,42,1,1,1,2,4,1,-40,1.0,-0.2409047,3264054.0,3267563.0,3266332.0,3266332.0,0.0,0.0,3264573.0,3266564.0,3264573.0,3267563.0,3266571.0,3267563.0,3509.0,519.0,2990.0,992.0,1991.0,-239.0
42,5691.113345,3.5078265,1,43,1,2,1,1,3,1,-30,2.0,-1.007663,3267570.0,3271079.0,3269080.0,0.0,3269080.0,0.0,3268089.0,3270080.0,3268089.0,3271080.0,3270087.0,3271080.0,3509.0,519.0,2991.0,993.0,1991.0,-1007.0
43,5694.629505,3.5078191,1,44,1,1,2,1,5,2,-35,1.0,-0.4330458,3271087.0,3274596.0,3273171.0,3273171.0,0.0,0.0,3271605.0,3273596.0,3271605.0,3274596.0,3273603.0,3274596.0,3509.0,518.0,2991.0,993.0,1991.0,-432.0
44,5698.145656,3.5078441,1,45,1,2,2,2,2,2,-35,2.0,-0.8746526,3274603.0,3278112.0,3276246.0,0.0,3276246.0,0.0,3275121.0,3277113.0,3275121.0,3278112.0,3277119.0,3278112.0,3509.0,518.0,2991.0,993.0,1992.0,-873.0
45,5701.661962,3.5076874,1,46,1,2,2,1,1,1,-30,2.0,-0.508162,3278119.0,3281628.0,3280129.0,0.0,3280129.0,0.0,3278637.0,3280628.0,3278637.0,3281629.0,3280635.0,3281629.0,3509.0,518.0,2992.0,994.0,1991.0,-506.0
46,5705.177962,3.5078796,1,47,1,1,2,1,2,1,-35,1.0,-0.3830824,3281635.0,3285145.0,3283769.0,3283769.0,0.0,0.0,3282153.0,3284144.0,3282153.0,3285145.0,3284151.0,3285145.0,3510.0,518.0,2992.0,994.0,1991.0,-382.0
47,5708.694174,3.5078073,1,48,1,2,2,1,4,2,-30,2.0,-0.8661417,3285151.0,3288661.0,3286803.0,0.0,3286803.0,0.0,3285669.0,3287660.0,3285669.0,3288661.0,3287667.0,3288662.0,3510.0,518.0,2992.0,995.0,1991.0,-864.0
48,5712.210456,3.5077002,1,49,1,1,1,1,5,2,-35,1.0,0.2752539,3288667.0,3292176.0,3291461.0,3291461.0,0.0,0.0,3289186.0,3291177.0,3289186.0,3292177.0,3291184.0,3292177.0,3509.0,519.0,2991.0,993.0,1991.0,277.0
49,5715.726587,3.5077333,1,50,1,2,1,1,3,1,-30,2.0,-0.8079014,3292184.0,3295693.0,3293893.0,0.0,3293893.0,0.0,3292702.0,3294693.0,3292702.0,3295693.0,3294700.0,3295693.0,3509.0,518.0,2991.0,993.0,1991.0,-807.0
50,5719.242651,3.524487,1,51,1,2,1,1,3,2,-35,2.0,-0.8246748,3295700.0,3299226.0,3297410.0,0.0,3297410.0,0.0,3296234.0,3298226.0,3296234.0,3299226.0,3298233.0,3299226.0,3526.0,534.0,2992.0,993.0,1992.0,-823.0
51,5795.348437,3.5078177,1,52,1,2,1,2,4,1,-40,2.0,-0.9912956,3371805.0,3375314.0,3373331.0,0.0,3373331.0,0.0,3372324.0,3374314.0,3372324.0,3375314.0,3374321.0,3375314.0,3509.0,519.0,2990.0,993.0,1990.0,-990.0
52,5798.864585,3.7827981,1,53,1,2,1,1,1,1,-40,1.0,-0.1497502,3375321.0,3379105.0,3377964.0,3377964.0,0.0,0.0,3376115.0,3378106.0,3376115.0,3379105.0,3378112.0,3379105.0,3784.0,794.0,2990.0,993.0,1991.0,-148.0
53,5802.655708,3.5078579,1,54,1,1,2,1,3,2,-35,1.0,-0.9163431,3379112.0,3382622.0,3380713.0,3380713.0,0.0,0.0,3379630.0,3381622.0,3379630.0,3382622.0,3381628.0,3382622.0,3510.0,518.0,2992.0,994.0,1992.0,-915.0
54,5806.171865,3.5078418,1,55,1,2,2,2,5,1,-45,1.0,-0.458022,3382628.0,3386138.0,3384689.0,3384689.0,0.0,0.0,3383146.0,3385137.0,3383146.0,3386138.0,3385144.0,3386138.0,3510.0,518.0,2992.0,994.0,1991.0,-455.0
55,5809.688039,3.5078585,1,56,1,1,2,1,3,1,-30,1.0,-0.7080256,3386144.0,3389654.0,3387954.0,3387954.0,0.0,0.0,3386662.0,3388654.0,3386662.0,3389654.0,3388661.0,3389654.0,3510.0,518.0,2992.0,993.0,1992.0,-707.0
56,5813.204196,3.5078475,1,57,1,1,2,2,1,2,-40,1.0,-1.1579847,3389660.0,3393170.0,3391020.0,3391020.0,0.0,0.0,3390179.0,3392170.0,3390179.0,3393171.0,3392177.0,3393171.0,3510.0,519.0,2992.0,994.0,1991.0,-1157.0
57,5816.73708,3.5078046,1,58,1,1,2,1,2,2,-25,1.0,-0.6247316,3393195.0,3396703.0,3395086.0,3395086.0,0.0,0.0,3393711.0,3395703.0,3393711.0,3396703.0,3395710.0,3396703.0,3508.0,516.0,2992.0,993.0,1992.0,-624.0
58,5820.253216,3.5078463,1,59,1,2,1,1,1,2,-20,2.0,-1.2079085,3396710.0,3400219.0,3398019.0,0.0,3398019.0,0.0,3397227.0,3399219.0,3397227.0,3400219.0,3399226.0,3400219.0,3509.0,517.0,2992.0,993.0,1992.0,-1207.0
59,5823.769342,3.5079338,1,60,1,1,2,2,2,1,-35,1.0,-0.8995625,3400226.0,3403735.0,3401844.0,3401844.0,0.0,0.0,3400744.0,3402735.0,3400744.0,3403735.0,3402742.0,3403735.0,3509.0,518.0,2991.0,993.0,1991.0,-898.0
60,5827.285564,3.507841,1,61,1,2,1,1,2,2,-25,2.0,-1.0161399,3403742.0,3407252.0,3405244.0,0.0,3405244.0,0.0,3404260.0,3406251.0,3404260.0,3407252.0,3406258.0,3407252.0,3510.0,518.0,2992.0,994.0,1991.0,-1014.0
61,5830.801729,3.5078212,1,62,1,2,1,2,5,2,-30,2.0,-1.2912486,3407258.0,3410767.0,3408485.0,0.0,3408485.0,0.0,3407776.0,3409767.0,3407776.0,3410767.0,3409774.0,3410767.0,3509.0,518.0,2991.0,993.0,1991.0,-1289.0
62,5834.317996,3.507704,1,63,1,2,1,1,2,1,-30,2.0,-0.9246652,3410774.0,3414283.0,3412367.0,0.0,3412367.0,0.0,3411293.0,3413284.0,3411293.0,3414283.0,3413290.0,3414284.0,3509.0,519.0,2990.0,994.0,1991.0,-923.0
63,5837.834186,3.507882,1,64,1,1,2,1,5,2,-35,1.0,-1.0746051,3414291.0,3417800.0,3415733.0,3415733.0,0.0,0.0,3414808.0,3416800.0,3414808.0,3417800.0,3416807.0,3417800.0,3509.0,517.0,2992.0,993.0,1992.0,-1074.0
64,5841.350234,3.7828028,1,65,1,1,1,2,3,1,-35,2.0,-0.7831249,3417806.0,3421591.0,3419816.0,0.0,3419816.0,0.0,3418599.0,3420591.0,3418599.0,3421591.0,3420598.0,3421591.0,3785.0,793.0,2992.0,993.0,1992.0,-782.0
65,5845.141357,3.5078094,1,66,1,2,1,2,5,1,-40,2.0,-1.0580947,3421598.0,3425107.0,3423057.0,0.0,3423057.0,0.0,3422115.0,3424107.0,3422115.0,3425107.0,3424114.0,3425108.0,3509.0,517.0,2992.0,994.0,1992.0,-1057.0
66,5848.657632,3.5077097,1,67,1,2,1,2,2,1,-45,2.0,-1.2245754,3425114.0,3428623.0,3426407.0,0.0,3426407.0,0.0,3425632.0,3427623.0,3425632.0,3428623.0,3427630.0,3428623.0,3509.0,518.0,2991.0,993.0,1991.0,-1223.0
67,5852.173678,3.7910966,1,68,1,2,2,2,1,2,-50,1.0,-0.8412326,3428630.0,3432422.0,3430589.0,3430589.0,0.0,0.0,3429431.0,3431423.0,3429431.0,3432423.0,3431429.0,3432423.0,3792.0,801.0,2992.0,994.0,1992.0,-840.0
68,5855.97312,3.5078462,1,69,1,1,1,2,3,1,-45,1.0,-0.4663551,3432429.0,3435939.0,3434480.0,3434480.0,0.0,0.0,3432948.0,3434939.0,3432948.0,3435939.0,3434945.0,3435939.0,3510.0,519.0,2991.0,994.0,1991.0,-465.0
69,5859.489297,3.5078394,1,70,1,1,1,2,3,1,-40,1.0,-0.4663485,3435945.0,3439455.0,3437997.0,3437997.0,0.0,0.0,3436463.0,3438454.0,3436463.0,3439455.0,3438462.0,3439455.0,3510.0,518.0,2992.0,993.0,1991.0,-465.0
70,5863.00547,3.5078313,1,71,1,1,2,2,4,1,-35,1.0,-0.8413343,3439461.0,3442971.0,3441138.0,3441138.0,0.0,0.0,3439980.0,3441971.0,3439980.0,3442972.0,3441978.0,3442972.0,3510.0,519.0,2992.0,994.0,1991.0,-840.0
71,5866.521769,3.5077281,1,72,1,1,2,1,2,2,-30,1.0,-0.6914035,3442978.0,3446487.0,3444804.0,3444804.0,0.0,0.0,3443496.0,3445487.0,3443496.0,3446487.0,3445494.0,3446487.0,3509.0,518.0,2991.0,993.0,1991.0,-690.0
72,5870.037826,3.5077739,1,73,1,2,2,1,4,2,-25,2.0,-1.224677,3446494.0,3450003.0,3447787.0,0.0,3447787.0,0.0,3447012.0,3449003.0,3447012.0,3450003.0,3449010.0,3450003.0,3509.0,518.0,2991.0,993.0,1991.0,-1223.0
73,5873.554095,3.6576866,1,74,1,2,2,2,1,2,-30,2.0,-1.1244372,3450010.0,3453669.0,3451553.0,0.0,3451553.0,0.0,3450679.0,3452670.0,3450679.0,3453669.0,3452676.0,3453670.0,3659.0,669.0,2990.0,994.0,1991.0,-1123.0
74,5877.220256,3.5076995,1,75,1,1,2,2,1,2,-35,1.0,-1.1912733,3453676.0,3457185.0,3455003.0,3455003.0,0.0,0.0,3454194.0,3456186.0,3454194.0,3457186.0,3456192.0,3457186.0,3509.0,518.0,2992.0,994.0,1992.0,-1189.0
75,5880.73628,3.5078396,1,76,1,2,1,2,1,2,-30,2.0,-1.2991564,3457192.0,3460701.0,3458411.0,0.0,3458411.0,0.0,3457710.0,3459702.0,3457710.0,3460701.0,3459708.0,3460701.0,3509.0,518.0,2991.0,993.0,1992.0,-1297.0
76,5884.252439,3.507856,1,77,1,2,1,1,2,1,-30,2.0,-1.1912661,3460708.0,3464218.0,3462035.0,0.0,3462035.0,0.0,3461226.0,3463218.0,3461226.0,3464218.0,3463225.0,3464218.0,3510.0,518.0,2992.0,993.0,1992.0,-1190.0
77,5887.768615,3.5078356,1,78,1,1,2,1,3,1,-35,1.0,-1.3162515,3464225.0,3467734.0,3465426.0,3465426.0,0.0,0.0,3464742.0,3466734.0,3464742.0,3467734.0,3466741.0,3467734.0,3509.0,517.0,2992.0,993.0,1992.0,-1315.0
78,5891.28492,3.9909738,1,79,1,1,1,1,3,2,-30,2.0,-0.9079796,3467741.0,3471733.0,3469834.0,0.0,3469834.0,0.0,3468742.0,3470733.0,3468742.0,3471733.0,3470740.0,3471733.0,3992.0,1001.0,2991.0,993.0,1991.0,-906.0
79,5895.284225,3.5078056,1,80,1,2,1,2,2,2,-35,2.0,-1.1824371,3471740.0,3475249.0,3473075.0,0.0,3473075.0,0.0,3472259.0,3474250.0,3472259.0,3475249.0,3474256.0,3475249.0,3509.0,519.0,2990.0,993.0,1991.0,-1181.0
80,5898.800362,3.8577741,1,81,1,1,2,1,2,1,-35,1.0,-0.9247398,3475256.0,3479115.0,3477199.0,3477199.0,0.0,0.0,3476124.0,3478116.0,3476124.0,3479116.0,3478123.0,3479116.0,3859.0,868.0,2992.0,993.0,1992.0,-924.0
81,5902.66672,3.5077696,1,82,1,2,1,2,3,2,-40,2.0,-1.1412228,3479123.0,3482632.0,3480499.0,0.0,3480499.0,0.0,3479640.0,3481632.0,3479640.0,3482632.0,3481639.0,3482632.0,3509.0,517.0,2992.0,993.0,1992.0,-1140.0
82,5906.18266,3.5078259,1,83,1,2,1,1,1,2,-30,2.0,-1.0995832,3482638.0,3486148.0,3484057.0,0.0,3484057.0,0.0,3483156.0,3485149.0,3483156.0,3486148.0,3485155.0,3486149.0,3510.0,518.0,2992.0,994.0,1993.0,-1098.0
83,5909.699012,3.5076981,1,84,1,2,2,1,3,2,-35,1.0,-0.8825425,3486155.0,3489664.0,3487790.0,3487790.0,0.0,0.0,3486673.0,3488664.0,3486673.0,3489665.0,3488671.0,3489665.0,3509.0,518.0,2992.0,994.0,1991.0,-881.0
84,5913.215167,3.5076751,1,85,1,1,1,2,1,1,-45,2.0,-0.6580076,3489671.0,3493181.0,3491530.0,0.0,3491530.0,0.0,3490189.0,3492180.0,3490189.0,3493181.0,3492187.0,3493181.0,3510.0,518.0,2992.0,994.0,1991.0,-657.0
85,5916.731163,3.8827991,1,86,1,1,2,1,3,2,-30,1.0,-0.8414399,3493187.0,3497072.0,3495239.0,3495239.0,0.0,0.0,3494080.0,3496071.0,3494080.0,3497072.0,3496078.0,3497072.0,3885.0,893.0,2992.0,994.0,1991.0,-839.0
86,5920.622263,3.5078554,1,87,1,1,2,2,1,1,-50,1.0,-0.7997265,3497078.0,3500587.0,3498796.0,3498796.0,0.0,0.0,3497596.0,3499588.0,3497597.0,3500587.0,3499595.0,3500588.0,3509.0,519.0,2990.0,993.0,1992.0,-799.0
87,5924.138598,3.6659983,1,88,1,2,1,1,2,2,-25,2.0,-1.2246157,3500594.0,3504262.0,3502045.0,0.0,3502045.0,0.0,3501271.0,3503262.0,3501271.0,3504262.0,3503269.0,3504262.0,3668.0,677.0,2991.0,993.0,1991.0,-1224.0
88,5927.812929,3.5078344,1,89,1,1,2,1,1,2,-30,1.0,-0.8329443,3504269.0,3507777.0,3505953.0,3505953.0,0.0,0.0,3504787.0,3506778.0,3504787.0,3507778.0,3506785.0,3507778.0,3508.0,518.0,2991.0,993.0,1991.0,-832.0
89,5931.329093,3.5078641,1,90,1,1,2,2,1,1,-45,1.0,-1.2246978,3507785.0,3511294.0,3509078.0,3509078.0,0.0,0.0,3508303.0,3510294.0,3508303.0,3511294.0,3510301.0,3511294.0,3509.0,518.0,2991.0,993.0,1991.0,-1223.0
90,5934.845266,3.5078344,1,91,1,2,1,2,2,2,-40,2.0,-1.2996106,3511301.0,3514810.0,3512519.0,0.0,3512519.0,0.0,3511819.0,3513811.0,3511820.0,3514810.0,3513817.0,3514811.0,3509.0,519.0,2990.0,994.0,1992.0,-1298.0
91,5938.361514,3.5077622,1,92,1,2,2,1,2,2,-25,2.0,-1.1997397,3514817.0,3518326.0,3516135.0,0.0,3516135.0,0.0,3515335.0,3517327.0,3515335.0,3518326.0,3517334.0,3518327.0,3509.0,518.0,2991.0,993.0,1992.0,-1199.0
92,5941.877611,3.5078361,1,93,1,2,1,2,2,2,-45,2.0,-0.9491464,3518333.0,3521843.0,3519902.0,0.0,3519902.0,0.0,3518851.0,3520843.0,3518851.0,3521843.0,3520849.0,3521843.0,3510.0,518.0,2992.0,994.0,1992.0,-947.0
93,5945.393776,3.5078114,1,94,1,1,2,2,4,1,-50,1.0,-1.0162486,3521849.0,3525359.0,3523351.0,3523351.0,0.0,0.0,3522367.0,3524358.0,3522368.0,3525359.0,3524366.0,3525359.0,3510.0,519.0,2991.0,993.0,1991.0,-1015.0
94,5948.90992,3.7328039,1,95,1,2,1,1,1,2,-30,2.0,-1.1581408,3525365.0,3529100.0,3526950.0,0.0,3526950.0,0.0,3526109.0,3528100.0,3526109.0,3529100.0,3528107.0,3529100.0,3735.0,744.0,2991.0,993.0,1991.0,-1157.0
95,5952.651053,3.5079389,1,96,1,2,1,1,5,2,-35,2.0,-0.9913232,3529106.0,3532616.0,3530633.0,0.0,3530633.0,0.0,3529625.0,3531616.0,3529625.0,3532617.0,3531623.0,3532617.0,3510.0,519.0,2992.0,994.0,1991.0,-990.0
96,5956.167224,3.5078702,1,97,1,2,2,1,5,2,-40,1.0,-0.9912917,3532623.0,3536132.0,3534150.0,3534150.0,0.0,0.0,3533141.0,3535132.0,3533141.0,3536132.0,3535139.0,3536132.0,3509.0,518.0,2991.0,993.0,1991.0,-989.0
97,5959.691739,3.9827629,1,98,1,2,1,1,2,2,-35,1.0,-0.7746573,3536149.0,3540132.0,3538366.0,3538366.0,0.0,0.0,3537140.0,3539132.0,3537140.0,3540132.0,3539138.0,3540132.0,3983.0,991.0,2992.0,994.0,1992.0,-772.0
98,5963.682838,3.5078376,1,99,1,2,2,1,2,2,-30,2.0,-0.1914471,3540138.0,3543648.0,3542465.0,0.0,3542465.0,0.0,3540657.0,3542648.0,3540657.0,3543648.0,3542655.0,3543648.0,3510.0,519.0,2991.0,993.0,1991.0,-190.0
99,5967.199003,3.8494644,1,100,1,2,2,2,3,2,-45,1.0,-0.4663757,3543654.0,3547505.0,3546048.0,3546048.0,0.0,0.0,3544514.0,3546506.0,3544514.0,3547505.0,3546512.0,3547505.0,3851.0,860.0,2991.0,993.0,1992.0,-464.0
100,6112.053608,3.7826864,2,1,1,1,1,2,3,2,-65,1.0,-0.4411371,3688510.0,3692293.0,3690860.0,3690860.0,0.0,0.0,3689301.0,3691293.0,3689301.0,3692293.0,3691299.0,3692293.0,3783.0,791.0,2992.0,994.0,1992.0,-439.0
101,6115.844643,3.5078327,2,2,1,1,1,1,4,2,-15,2.0,-1.0411037,3692299.0,3695809.0,3693776.0,0.0,3693776.0,0.0,3692817.0,3694808.0,3692818.0,3695809.0,3694815.0,3695809.0,3510.0,519.0,2991.0,994.0,1991.0,-1039.0
102,6119.360809,3.5078459,2,3,1,2,1,1,1,2,-20,2.0,-0.9994398,3695815.0,3699325.0,3697334.0,0.0,3697334.0,0.0,3696334.0,3698325.0,3696334.0,3699325.0,3698332.0,3699325.0,3510.0,519.0,2991.0,993.0,1991.0,-998.0
103,6122.87698,3.5078315,2,4,1,1,2,2,2,2,-60,1.0,-1.0821938,3699331.0,3702840.0,3700767.0,3700767.0,0.0,0.0,3699850.0,3701841.0,3699850.0,3702841.0,3701848.0,3702841.0,3509.0,519.0,2991.0,993.0,1991.0,-1081.0
104,6126.393144,3.5161732,2,5,1,2,2,2,4,2,-55,1.0,-0.9572391,3702848.0,3706366.0,3704417.0,3704417.0,0.0,0.0,3703374.0,3705366.0,3703375.0,3706367.0,3705373.0,3706368.0,3518.0,527.0,2992.0,995.0,1992.0,-956.0
105,6129.925967,3.5078494,2,6,1,1,1,1,2,2,-25,2.0,-0.9159625,3706382.0,3709890.0,3707982.0,0.0,3707982.0,0.0,3706898.0,3708891.0,3706899.0,3709890.0,3708897.0,3709891.0,3508.0,517.0,2991.0,994.0,1993.0,-915.0
106,6133.442148,3.507823,2,7,1,1,1,2,1,1,-50,1.0,-1.1995693,3709896.0,3713406.0,3711215.0,3711215.0,0.0,0.0,3710415.0,3712406.0,3710415.0,3713407.0,3712413.0,3713407.0,3510.0,519.0,2992.0,994.0,1991.0,-1198.0
107,6136.958437,3.5077128,2,8,1,1,2,1,3,1,-30,2.0,-0.8164166,3713413.0,3716922.0,3715115.0,0.0,3715115.0,0.0,3713931.0,3715922.0,3713931.0,3716922.0,3715929.0,3716922.0,3509.0,518.0,2991.0,993.0,1991.0,-814.0
108,6140.474462,3.5078478,2,9,1,2,2,1,4,2,-35,2.0,-0.5322509,3716929.0,3720438.0,3718915.0,0.0,3718915.0,0.0,3717447.0,3719438.0,3717447.0,3720438.0,3719445.0,3720438.0,3509.0,518.0,2991.0,993.0,1991.0,-530.0
109,6143.990639,3.5080078,2,10,1,1,2,1,4,2,-40,1.0,-0.4322848,3720445.0,3723955.0,3722531.0,3722531.0,0.0,0.0,3720963.0,3722955.0,3720963.0,3723956.0,3722961.0,3723956.0,3510.0,518.0,2993.0,995.0,1992.0,-430.0
110,6147.506935,3.6660369,2,11,1,2,1,2,1,1,-45,1.0,-0.6663154,3723961.0,3727628.0,3725971.0,3725971.0,0.0,0.0,3724638.0,3726629.0,3724638.0,3727628.0,3726636.0,3727628.0,3667.0,677.0,2990.0,992.0,1991.0,-665.0
111,6151.181307,3.507868,2,12,1,2,1,1,4,1,-35,1.0,-0.6663592,3727636.0,3731145.0,3729488.0,3729488.0,0.0,0.0,3728154.0,3730145.0,3728154.0,3731145.0,3730152.0,3731145.0,3509.0,518.0,2991.0,993.0,1991.0,-664.0
112,6154.697503,3.5078093,2,13,1,2,2,1,5,1,-30,2.0,-0.6661381,3731152.0,3734661.0,3733004.0,0.0,3733004.0,0.0,3731669.0,3733662.0,3731669.0,3734661.0,3733668.0,3734662.0,3509.0,517.0,2992.0,994.0,1993.0,-664.0
113,6158.213784,3.5076972,2,14,1,1,1,1,4,2,-35,2.0,-0.7495961,3734668.0,3738177.0,3736436.0,0.0,3736436.0,0.0,3735186.0,3737178.0,3735186.0,3738177.0,3737184.0,3738177.0,3509.0,518.0,2991.0,993.0,1992.0,-748.0
114,6161.729794,3.5080574,2,15,1,2,2,1,1,1,-40,1.0,-0.6662893,3738184.0,3741694.0,3740035.0,3740035.0,0.0,0.0,3738702.0,3740693.0,3738702.0,3741694.0,3740700.0,3741694.0,3510.0,518.0,2992.0,994.0,1991.0,-665.0
115,6165.246126,3.5076954,2,16,1,2,2,2,1,1,-40,1.0,-0.7746548,3741700.0,3745210.0,3743444.0,3743444.0,0.0,0.0,3742218.0,3744209.0,3742218.0,3745210.0,3744216.0,3745210.0,3510.0,518.0,2992.0,994.0,1991.0,-772.0
116,6168.762285,3.9992997,2,17,1,2,2,1,1,2,-35,2.0,-0.8580324,3745217.0,3749217.0,3747368.0,0.0,3747368.0,0.0,3746226.0,3748217.0,3746226.0,3749217.0,3748224.0,3749217.0,4000.0,1009.0,2991.0,993.0,1991.0,-856.0
117,6172.769922,3.5078299,2,18,1,2,2,1,3,2,-40,1.0,-0.9663166,3749224.0,3752733.0,3750776.0,3750776.0,0.0,0.0,3749743.0,3751734.0,3749743.0,3752733.0,3751741.0,3752733.0,3509.0,519.0,2990.0,992.0,1991.0,-965.0
118,6176.286087,3.8244582,2,19,1,2,1,2,1,2,-35,2.0,-0.5079437,3752740.0,3756566.0,3755067.0,0.0,3755067.0,0.0,3753575.0,3755567.0,3753575.0,3756567.0,3755573.0,3756567.0,3826.0,835.0,2992.0,994.0,1992.0,-506.0
119,6180.118971,3.5077604,2,20,1,1,1,1,1,1,-35,2.0,-0.2830989,3756573.0,3760083.0,3758807.0,0.0,3758807.0,0.0,3757091.0,3759082.0,3757091.0,3760083.0,3759089.0,3760083.0,3510.0,518.0,2992.0,994.0,1991.0,-282.0
120,6183.635173,3.9993097,2,21,1,2,1,1,2,1,-40,2.0,-0.5747581,3760089.0,3764090.0,3762524.0,0.0,3762524.0,0.0,3761099.0,3763090.0,3761099.0,3764090.0,3763097.0,3764090.0,4001.0,1010.0,2991.0,993.0,1991.0,-573.0
121,6187.642819,3.5078209,2,22,1,1,2,2,2,2,-40,1.0,-0.6163533,3764097.0,3767606.0,3765998.0,3765998.0,0.0,0.0,3764615.0,3766607.0,3764615.0,3767606.0,3766613.0,3767606.0,3509.0,518.0,2991.0,993.0,1992.0,-615.0
122,6191.158974,3.5411773,2,23,1,2,2,2,5,2,-35,2.0,-0.5496273,3767613.0,3771155.0,3769614.0,0.0,3769614.0,0.0,3768165.0,3770156.0,3768165.0,3771155.0,3770163.0,3771156.0,3542.0,552.0,2990.0,993.0,1991.0,-549.0
123,6194.708473,3.507859,2,24,1,1,2,1,5,1,-45,1.0,-0.6665605165,3771162.0,3774672.0,3773014.0,3773014.0,0.0,0.0,3771681.0,3773672.0,3771681.0,3774672.0,3773679.0,3774672.0,3510.0,519.0,2991.0,993.0,1991.0,-665.0
124,6198.224784,3.5077065,2,25,1,1,1,1,5,2,-40,2.0,-0.9996386,3774679.0,3778188.0,3776197.0,0.0,3776197.0,0.0,3775196.0,3777188.0,3775196.0,3778188.0,3777195.0,3778188.0,3509.0,517.0,2992.0,993.0,1992.0,-998.0
125,6201.740946,3.5077122,2,26,1,2,1,1,2,2,-45,n/a,n/a,3778195.0,3781704.0,0.0,0.0,0.0,0.0,3778713.0,3780705.0,3778713.0,3781704.0,3780711.0,3781704.0,3509.0,518.0,2991.0,993.0,1992.0,-3780711.0
126,6205.256997,3.507836,2,27,1,1,1,1,4,1,-45,2.0,-0.78314,3781711.0,3785221.0,3783445.0,0.0,3783445.0,0.0,3782229.0,3784220.0,3782229.0,3785221.0,3784228.0,3785221.0,3510.0,518.0,2992.0,993.0,1991.0,-783.0
127,6208.773162,3.5079216,2,28,1,1,2,2,3,1,-40,1.0,-0.7080584,3785227.0,3788737.0,3787037.0,3787037.0,0.0,0.0,3785745.0,3787736.0,3785745.0,3788737.0,3787744.0,3788737.0,3510.0,518.0,2992.0,993.0,1991.0,-707.0
128,6212.289331,3.5078368,2,29,1,1,2,2,1,1,-35,1.0,-0.8746674,3788743.0,3792252.0,3790386.0,3790386.0,0.0,0.0,3789262.0,3791253.0,3789262.0,3792253.0,3791259.0,3792253.0,3509.0,519.0,2991.0,994.0,1991.0,-873.0
129,6215.8055,3.5078575,2,30,1,2,1,1,3,1,-50,1.0,-0.7913336,3792259.0,3795769.0,3793986.0,3793986.0,0.0,0.0,3792777.0,3794769.0,3792777.0,3795769.0,3794776.0,3795769.0,3510.0,518.0,2992.0,993.0,1992.0,-790.0
130,6219.321677,3.882795,2,31,1,1,1,1,5,2,-45,1.0,-1.0329567,3795775.0,3799660.0,3797636.0,3797636.0,0.0,0.0,3796668.0,3798660.0,3796668.0,3799660.0,3798667.0,3799660.0,3885.0,893.0,2992.0,993.0,1992.0,-1031.0
131,6308.492435,3.674432,2,32,1,2,2,1,5,2,-40,1.0,-0.4663867,3884946.0,3888622.0,3887163.0,3887163.0,0.0,0.0,3885630.0,3887622.0,3885630.0,3888622.0,3887629.0,3888622.0,3676.0,684.0,2992.0,993.0,1992.0,-466.0
132,6312.175185,3.5078541,2,33,1,1,2,1,5,1,-35,1.0,-0.4830315,3888628.0,3892138.0,3890664.0,3890664.0,0.0,0.0,3889146.0,3891137.0,3889146.0,3892138.0,3891145.0,3892138.0,3510.0,518.0,2992.0,993.0,1991.0,-481.0
133,6315.691401,3.5077989,2,34,1,1,2,1,3,2,-30,2.0,-0.8247697,3892145.0,3895654.0,3893838.0,0.0,3893838.0,0.0,3892663.0,3894654.0,3892663.0,3895654.0,3894661.0,3895654.0,3509.0,518.0,2991.0,993.0,1991.0,-823.0
134,6319.207525,3.5078512,2,35,1,1,1,2,1,1,-30,2.0,-0.9162911,3895661.0,3899171.0,3897262.0,0.0,3897262.0,0.0,3896179.0,3898170.0,3896179.0,3899171.0,3898177.0,3899171.0,3510.0,518.0,2992.0,994.0,1991.0,-915.0
135,6322.723726,3.5078208,2,36,1,1,1,1,2,1,-35,2.0,-0.8996244,3899177.0,3902686.0,3900795.0,0.0,3900795.0,0.0,3899695.0,3901686.0,3899695.0,3902686.0,3901693.0,3902686.0,3509.0,518.0,2991.0,993.0,1991.0,-898.0
136,6326.239859,3.5078553,2,37,1,1,2,1,3,1,-40,1.0,-0.6246448,3902693.0,3906202.0,3904586.0,3904586.0,0.0,0.0,3903212.0,3905203.0,3903212.0,3906202.0,3905209.0,3906202.0,3509.0,519.0,2990.0,993.0,1991.0,-623.0
137,6329.75605,3.5078368,2,38,1,1,1,1,5,2,-35,2.0,-0.9829801,3906209.0,3909719.0,3907744.0,0.0,3907744.0,0.0,3906727.0,3908719.0,3906727.0,3909719.0,3908726.0,3909719.0,3510.0,518.0,2992.0,993.0,1992.0,-982.0
138,6333.272361,3.507925079,2,39,1,1,2,1,5,2,-40,2.0,-0.9080605,3909726.0,3913235.0,3911336.0,0.0,3911336.0,0.0,3910243.0,3912235.0,3910243.0,3913235.0,3912242.0,3913235.0,3509.0,517.0,2992.0,993.0,1992.0,-906.0
139,6336.7884,3.5078201,2,40,1,1,1,1,3,2,-45,1.0,-0.7830111,3913241.0,3916751.0,3914976.0,3914976.0,0.0,0.0,3913760.0,3915752.0,3913760.0,3916751.0,3915758.0,3916752.0,3510.0,519.0,2991.0,994.0,1992.0,-782.0
140,6340.304692,3.5076906,2,41,1,2,2,2,3,1,-35,2.0,-0.5497124,3916758.0,3920267.0,3918726.0,0.0,3918726.0,0.0,3917276.0,3919267.0,3917276.0,3920268.0,3919274.0,3920268.0,3509.0,518.0,2992.0,994.0,1991.0,-548.0
141,6343.820712,3.5079636,2,42,1,1,2,1,2,1,-40,1.0,-0.4246935,3920274.0,3923784.0,3922367.0,3922367.0,0.0,0.0,3920792.0,3922783.0,3920792.0,3923784.0,3922790.0,3923784.0,3510.0,518.0,2992.0,994.0,1991.0,-423.0
142,6347.337105,3.5076163,2,43,1,1,2,2,4,2,-40,1.0,-0.9078034,3923790.0,3927299.0,3925400.0,3925400.0,0.0,0.0,3924308.0,3926299.0,3924308.0,3927299.0,3926306.0,3927299.0,3509.0,518.0,2991.0,993.0,1991.0,-906.0
143,6350.853037,3.5078415,2,44,1,2,1,2,5,1,-35,1.0,-0.5497973,3927306.0,3930815.0,3929274.0,3929274.0,0.0,0.0,3927825.0,3929816.0,3927825.0,3930815.0,3929823.0,3930815.0,3509.0,519.0,2990.0,992.0,1991.0,-549.0
144,6354.369225,3.5078442,2,45,1,2,2,1,3,2,-35,2.0,-0.6413625,3930822.0,3934332.0,3932698.0,0.0,3932698.0,0.0,3931340.0,3933332.0,3931340.0,3934332.0,3933338.0,3934332.0,3510.0,518.0,2992.0,994.0,1992.0,-640.0
145,6357.885412,3.5078363,2,46,1,2,2,2,3,2,-30,2.0,-0.8497173,3934338.0,3937848.0,3936007.0,0.0,3936007.0,0.0,3934856.0,3936848.0,3934856.0,3937848.0,3936855.0,3937848.0,3510.0,518.0,2992.0,993.0,1992.0,-848.0
146,6361.401583,3.5078321,2,47,1,1,2,2,3,2,-35,1.0,-1.1162506,3937854.0,3941364.0,3939256.0,3939256.0,0.0,0.0,3938373.0,3940364.0,3938373.0,3941364.0,3940371.0,3941365.0,3510.0,519.0,2991.0,994.0,1991.0,-1115.0
147,6364.917883,3.5077076,2,48,1,2,2,1,1,2,-40,1.0,-1.0995859,3941371.0,3944880.0,3942788.0,3942788.0,0.0,0.0,3941889.0,3943880.0,3941889.0,3944881.0,3943887.0,3944881.0,3509.0,518.0,2992.0,994.0,1991.0,-1099.0
148,6368.434058,3.50772,2,49,1,1,1,1,2,1,-35,1.0,-0.0413153,3944887.0,3948396.0,3947363.0,3947363.0,0.0,0.0,3945405.0,3947396.0,3945405.0,3948396.0,3947403.0,3948396.0,3509.0,518.0,2991.0,993.0,1991.0,-40.0
149,6371.950115,3.5078209,2,50,1,1,2,2,1,2,-30,1.0,-0.9913056,3948403.0,3951912.0,3949930.0,3949930.0,0.0,0.0,3948921.0,3950912.0,3948921.0,3951912.0,3950919.0,3951913.0,3509.0,518.0,2991.0,994.0,1991.0,-989.0
150,6375.466405,3.5077178,2,51,1,2,2,1,2,2,-30,2.0,-0.9748272,3951919.0,3955428.0,3953462.0,0.0,3953462.0,0.0,3952438.0,3954429.0,3952438.0,3955428.0,3954436.0,3955428.0,3509.0,519.0,2990.0,992.0,1991.0,-974.0
151,6378.982456,3.5078206,2,52,1,2,2,1,1,2,-35,2.0,-0.6330131,3955435.0,3958945.0,3957320.0,0.0,3957320.0,0.0,3955953.0,3957945.0,3955953.0,3958945.0,3957952.0,3958945.0,3510.0,518.0,2992.0,993.0,1992.0,-632.0
152,6382.49861,3.5078539,2,53,1,2,1,1,5,2,-40,2.0,-0.4415194,3958951.0,3962461.0,3961028.0,0.0,3961028.0,0.0,3959469.0,3961461.0,3959470.0,3962461.0,3961468.0,3962461.0,3510.0,519.0,2991.0,993.0,1992.0,-440.0
153,6386.014794,3.5078279,2,54,1,1,1,1,5,1,-45,1.0,-1.0914282,3962468.0,3965977.0,3963894.0,3963894.0,0.0,0.0,3962986.0,3964978.0,3962986.0,3965977.0,3964984.0,3965977.0,3509.0,518.0,2991.0,993.0,1992.0,-1090.0
154,6389.53095,3.5078457,2,55,1,2,1,1,1,1,-40,2.0,-0.7163488,3965984.0,3969493.0,3967785.0,0.0,3967785.0,0.0,3966502.0,3968493.0,3966502.0,3969494.0,3968500.0,3969494.0,3509.0,518.0,2992.0,994.0,1991.0,-715.0
155,6393.047184,3.5077834,2,56,1,2,1,2,1,2,-25,2.0,-0.9490412,3969500.0,3973009.0,3971069.0,0.0,3971069.0,0.0,3970018.0,3972009.0,3970018.0,3973009.0,3972016.0,3973009.0,3509.0,518.0,2991.0,993.0,1991.0,-947.0
156,6396.563285,3.5078462,2,57,1,2,2,1,3,2,-45,2.0,-0.6413227,3973016.0,3976525.0,3974893.0,0.0,3974893.0,0.0,3973535.0,3975525.0,3973535.0,3976525.0,3975532.0,3976525.0,3509.0,519.0,2990.0,993.0,1990.0,-639.0
157,6400.079453,3.5078212,2,58,1,1,1,1,5,2,-50,1.0,-0.9496469,3976532.0,3980041.0,3978100.0,3978100.0,0.0,0.0,3977050.0,3979042.0,3977050.0,3980042.0,3979048.0,3980042.0,3509.0,518.0,2992.0,994.0,1992.0,-948.0
158,6403.595622,3.6495149,2,59,1,2,2,2,5,2,-30,2.0,-0.774715,3980048.0,3983700.0,3981933.0,0.0,3981933.0,0.0,3980708.0,3982699.0,3980708.0,3983700.0,3982707.0,3983700.0,3652.0,660.0,2992.0,993.0,1991.0,-774.0
159,6407.253468,3.5078433,2,60,1,1,1,2,4,2,-35,2.0,-0.7329901,3983706.0,3987216.0,3985491.0,0.0,3985491.0,0.0,3984224.0,3986215.0,3984224.0,3987216.0,3986222.0,3987216.0,3510.0,518.0,2992.0,994.0,1991.0,-731.0
160,6410.769626,3.9327711,2,61,1,1,1,1,3,1,-45,n/a,n/a,3987222.0,3991157.0,0.0,0.0,0.0,0.0,3988165.0,3990156.0,3988165.0,3991157.0,3990163.0,3991157.0,3935.0,943.0,2992.0,994.0,1991.0,-3990163.0
161,6414.710736,3.5078418,2,62,1,2,2,1,4,1,-45,2.0,-0.6080739,3991163.0,3994672.0,3993073.0,0.0,3993073.0,0.0,3991682.0,3993673.0,3991682.0,3994672.0,3993680.0,3994672.0,3509.0,519.0,2990.0,992.0,1991.0,-607.0
162,6418.226897,3.5078542,2,63,1,1,1,2,5,1,-40,1.0,-1.182365,3994679.0,3998189.0,3996015.0,3996015.0,0.0,0.0,3995198.0,3997189.0,3995198.0,3998189.0,3997196.0,3998189.0,3510.0,519.0,2991.0,993.0,1991.0,-1181.0
163,6421.743233,3.5076883,2,64,1,1,1,1,4,1,-50,1.0,-1.0073946,3998196.0,4001705.0,3999706.0,3999706.0,0.0,0.0,3998714.0,4000705.0,3998714.0,4001705.0,4000712.0,4001705.0,3509.0,518.0,2991.0,993.0,1991.0,-1006.0
164,6425.259258,3.5078369,2,65,1,1,2,1,1,1,-45,n/a,n/a,4001712.0,4005221.0,0.0,0.0,0.0,0.0,4002230.0,4004222.0,4002230.0,4005221.0,4004228.0,4005221.0,3509.0,518.0,2991.0,993.0,1992.0,-4004228.0
165,6428.77543,3.507838,2,66,1,1,1,2,1,1,-35,2.0,-0.7663458,4005228.0,4008737.0,4006979.0,0.0,4006979.0,0.0,4005746.0,4007737.0,4005746.0,4008737.0,4007744.0,4008738.0,3509.0,518.0,2991.0,994.0,1991.0,-765.0
166,6432.291575,3.9994599,2,67,1,2,1,1,2,2,-45,2.0,-1.0247834,4008744.0,4012745.0,4010729.0,0.0,4010729.0,0.0,4009754.0,4011745.0,4009754.0,4012745.0,4011752.0,4012745.0,4001.0,1010.0,2991.0,993.0,1991.0,-1023.0
167,6436.299369,3.507851,2,68,1,2,2,2,3,2,-40,n/a,n/a,4012752.0,4016261.0,0.0,0.0,0.0,0.0,4013270.0,4015261.0,4013270.0,4016261.0,4015268.0,4016261.0,3509.0,518.0,2991.0,993.0,1991.0,-4015268.0
168,6439.815532,3.5079445,2,69,1,1,1,1,1,1,-50,1.0,0.1418299,4016268.0,4019777.0,4018928.0,4018928.0,0.0,0.0,4016787.0,4018778.0,4016787.0,4019777.0,4018785.0,4019778.0,3509.0,519.0,2990.0,993.0,1991.0,143.0
169,6443.331791,3.5078049,2,70,1,2,2,2,1,2,-40,2.0,-0.8829243,4019784.0,4023294.0,4021419.0,0.0,4021419.0,0.0,4020302.0,4022294.0,4020302.0,4023294.0,4022300.0,4023294.0,3510.0,518.0,2992.0,994.0,1992.0,-881.0
170,6446.847872,3.5078472,2,71,1,1,1,1,2,1,-45,2.0,-0.666162,4023300.0,4026810.0,4025152.0,0.0,4025152.0,0.0,4023818.0,4025810.0,4023818.0,4026810.0,4025817.0,4026810.0,3510.0,518.0,2992.0,993.0,1992.0,-665.0
171,6450.364054,3.5080382,2,72,1,2,2,2,5,1,-45,2.0,-0.2497182,4026816.0,4030326.0,4029085.0,0.0,4029085.0,0.0,4027334.0,4029326.0,4027334.0,4030326.0,4029333.0,4030326.0,3510.0,518.0,2992.0,993.0,1992.0,-248.0
172,6453.880213,3.507851,2,73,1,2,1,2,3,2,-50,2.0,-0.8164752,4030333.0,4033842.0,4032034.0,0.0,4032034.0,0.0,4030851.0,4032843.0,4030851.0,4033843.0,4032849.0,4033843.0,3509.0,518.0,2992.0,994.0,1992.0,-815.0
173,6457.396395,3.5078568,2,74,1,2,1,1,5,2,-50,2.0,-0.9912871,4033849.0,4037358.0,4035376.0,0.0,4035376.0,0.0,4034367.0,4036358.0,4034367.0,4037358.0,4036365.0,4037358.0,3509.0,518.0,2991.0,993.0,1991.0,-989.0
174,6460.912575,3.5078504,2,75,1,2,2,2,3,2,-55,1.0,-0.7496664,4037365.0,4040874.0,4039133.0,4039133.0,0.0,0.0,4037883.0,4039874.0,4037883.0,4040874.0,4039881.0,4040874.0,3509.0,518.0,2991.0,993.0,1991.0,-748.0
175,6464.428746,3.5078324,2,76,1,2,2,2,1,1,-50,1.0,-0.8163166,4040881.0,4044390.0,4042582.0,4042582.0,0.0,0.0,4041399.0,4043391.0,4041399.0,4044390.0,4043397.0,4044390.0,3509.0,518.0,2991.0,993.0,1992.0,-815.0
176,6467.944913,3.5078427,2,77,1,1,2,1,2,2,-55,1.0,-0.6830882,4044397.0,4047906.0,4046232.0,4046232.0,0.0,0.0,4044915.0,4046907.0,4044915.0,4047907.0,4046914.0,4047907.0,3509.0,518.0,2992.0,993.0,1992.0,-682.0
177,6471.461083,3.5078557,2,78,1,1,1,1,4,1,-50,1.0,-0.8991471,4047913.0,4051423.0,4049532.0,4049532.0,0.0,0.0,4048431.0,4050423.0,4048431.0,4051423.0,4050430.0,4051423.0,3510.0,518.0,2992.0,993.0,1992.0,-898.0
178,6474.977428,3.5076564,2,79,1,1,2,1,3,1,-45,1.0,-0.5580362,4051430.0,4054939.0,4053389.0,4053389.0,0.0,0.0,4051947.0,4053939.0,4051948.0,4054939.0,4053946.0,4054939.0,3509.0,518.0,2991.0,993.0,1992.0,-557.0
179,6544.817399,3.5078305,2,80,1,2,1,2,2,1,-45,1.0,-0.8830234,4121269.0,4124778.0,4122904.0,4122904.0,0.0,0.0,4121788.0,4123779.0,4121788.0,4124778.0,4123785.0,4124778.0,3509.0,519.0,2990.0,993.0,1991.0,-881.0
180,6548.33356,3.5078096,2,81,1,2,1,1,4,1,-40,1.0,-1.0663256,4124785.0,4128295.0,4126237.0,4126237.0,0.0,0.0,4125303.0,4127295.0,4125303.0,4128295.0,4127302.0,4128295.0,3510.0,518.0,2992.0,993.0,1992.0,-1065.0
181,6551.849693,3.5078784,2,82,1,2,2,1,4,2,-35,1.0,-0.6830156,4128301.0,4131811.0,4130137.0,4130137.0,0.0,0.0,4128819.0,4130811.0,4128819.0,4131811.0,4130818.0,4131811.0,3510.0,518.0,2992.0,993.0,1992.0,-681.0
182,6555.365898,3.5078529,2,83,1,2,1,1,2,2,-30,1.0,-0.9745749,4131818.0,4135327.0,4133361.0,4133361.0,0.0,0.0,4132336.0,4134327.0,4132336.0,4135327.0,4134334.0,4135327.0,3509.0,518.0,2991.0,993.0,1991.0,-973.0
183,6558.882084,3.5078266,2,84,1,2,2,1,3,1,-25,2.0,-0.6580298,4135334.0,4138843.0,4137193.0,0.0,4137193.0,0.0,4135852.0,4137843.0,4135852.0,4138844.0,4137850.0,4138844.0,3509.0,518.0,2992.0,994.0,1991.0,-657.0
184,6562.398408,3.5077081,2,85,1,2,1,2,1,1,-40,1.0,-1.0994513,4138850.0,4142360.0,4140269.0,4140269.0,0.0,0.0,4139368.0,4141359.0,4139368.0,4142360.0,4141366.0,4142360.0,3510.0,518.0,2992.0,994.0,1991.0,-1097.0
185,6565.914427,3.5078602,2,86,1,2,1,2,2,2,-35,2.0,-0.6913444,4142366.0,4145875.0,4144193.0,0.0,4144193.0,0.0,4142884.0,4144875.0,4142884.0,4145875.0,4144882.0,4145875.0,3509.0,518.0,2991.0,993.0,1991.0,-689.0
186,6569.430609,3.5078216,2,87,1,2,1,2,2,2,-40,2.0,-0.9413234,4145882.0,4149391.0,4147458.0,0.0,4147458.0,0.0,4146401.0,4148392.0,4146401.0,4149392.0,4148398.0,4149392.0,3509.0,519.0,2991.0,994.0,1991.0,-940.0
187,6572.946956,3.507669,2,88,1,2,1,2,3,1,-45,1.0,-1.2079293,4149398.0,4152908.0,4150709.0,4150709.0,0.0,0.0,4149916.0,4151908.0,4149916.0,4152908.0,4151915.0,4152908.0,3510.0,518.0,2992.0,993.0,1992.0,-1206.0
188,6576.462962,3.5078216,2,89,1,1,1,1,1,1,-30,2.0,-1.1745792,4152914.0,4156424.0,4154258.0,0.0,4154258.0,0.0,4153432.0,4155424.0,4153432.0,4156424.0,4155431.0,4156424.0,3510.0,518.0,2992.0,993.0,1992.0,-1173.0
189,6579.979116,3.5078416,2,90,1,2,2,2,2,2,-40,1.0,-1.0579805,4156431.0,4159940.0,4157890.0,4157890.0,0.0,0.0,4156949.0,4158940.0,4156949.0,4159940.0,4158947.0,4159940.0,3509.0,518.0,2991.0,993.0,1991.0,-1057.0
190,6583.495291,3.5078219,2,91,1,1,1,2,3,2,-35,2.0,-1.1496076,4159947.0,4163457.0,4161314.0,0.0,4161314.0,0.0,4160465.0,4162456.0,4160465.0,4163457.0,4162463.0,4163457.0,3510.0,518.0,2992.0,994.0,1991.0,-1149.0
191,6587.011465,3.5078319,2,92,1,2,1,1,5,2,-35,1.0,-0.9579005,4163463.0,4166972.0,4165023.0,4165023.0,0.0,0.0,4163981.0,4165972.0,4163981.0,4166972.0,4165979.0,4166972.0,3509.0,518.0,2991.0,993.0,1991.0,-956.0
192,6590.52763,3.5078317,2,93,1,1,1,1,1,1,-30,2.0,-1.2578428,4166979.0,4170488.0,4168239.0,0.0,4168239.0,0.0,4167498.0,4169489.0,4167498.0,4170489.0,4169495.0,4170489.0,3509.0,519.0,2991.0,994.0,1991.0,-1256.0
193,6594.043934,3.5076701,2,94,1,1,1,1,1,2,-35,2.0,-1.1573477,4170496.0,4174004.0,4171855.0,0.0,4171855.0,0.0,4171013.0,4173005.0,4171013.0,4174005.0,4173011.0,4174005.0,3508.0,517.0,2992.0,994.0,1992.0,-1156.0
194,6597.559956,3.5078508,2,95,1,1,1,1,1,2,-40,2.0,-1.1912578,4174011.0,4177521.0,4175338.0,0.0,4175338.0,0.0,4174529.0,4176521.0,4174529.0,4177521.0,4176528.0,4177521.0,3510.0,518.0,2992.0,993.0,1992.0,-1190.0
195,6601.07614,3.5078272,2,96,1,2,2,1,5,2,-45,2.0,-0.7745879,4177527.0,4181037.0,4179271.0,0.0,4179271.0,0.0,4178045.0,4180038.0,4178045.0,4181037.0,4180044.0,4181037.0,3510.0,518.0,2992.0,993.0,1993.0,-773.0
196,6604.592285,3.5078644,2,97,1,2,2,1,4,1,-50,1.0,-1.1164597,4181044.0,4184553.0,4182445.0,4182445.0,0.0,0.0,4181562.0,4183553.0,4181562.0,4184553.0,4183560.0,4184553.0,3509.0,518.0,2991.0,993.0,1991.0,-1115.0
197,6608.108481,3.5078563,2,98,1,1,2,2,1,2,-40,1.0,-0.8664479,4184560.0,4188070.0,4186211.0,4186211.0,0.0,0.0,4185078.0,4187069.0,4185078.0,4188070.0,4187076.0,4188070.0,3510.0,518.0,2992.0,994.0,1991.0,-865.0
198,6611.624661,3.5078486,2,99,1,2,2,2,1,2,-35,2.0,-0.9746368,4188076.0,4191585.0,4189619.0,0.0,4189619.0,0.0,4188594.0,4190585.0,4188594.0,4191585.0,4190592.0,4191585.0,3509.0,518.0,2991.0,993.0,1991.0,-973.0
199,6615.140805,3.5078979,2,100,1,1,2,2,5,1,-40,1.0,-1.032958,4191592.0,4195101.0,4193077.0,4193077.0,0.0,0.0,4192111.0,4194102.0,4192111.0,4195102.0,4194108.0,4195102.0,3509.0,519.0,2991.0,994.0,1991.0,-1031.0
