,onset,duration,run_number,trial_number,task,ext_mot_pos,ext_mot_ver_dir,staircase_num,fix_off_prct,trial_type,ext_mot_ori,direction_report,response_duration,trial_onset,trial_offset,button_press_onset,button_left,button_right,fix_break,motion_onset,motion_offset,fixation_onset,fixation_offset,response_onset,response_offset,trial_duration,fix_check_duration,fixation_duration,response_duration,motion_duration,reaction_time,miss_time_trial,blink_trial,no_saccade_trial,main_sac_trial,innacurate_sac_trial,early_sac_trial,late_sac_trial,sac_x_onset_trial,sac_x_offset_trial,sac_y_onset_trial,sac_y_offset_trial,sac_t_onset_trial,sac_t_offset_trial,sac_dur_trial,sac_vpeak_trial,sac_dist_trial,sac_amp_trial,sac_dist_ang_trial,sac_lat_trial,sac_amp_ang_trial,cor_sac_trial,cor_sac_x_onset_trial,cor_sac_x_offset_trial,cor_sac_y_onset_trial,cor_sac_y_offset_trial,cor_sac_t_onset_trial,cor_sac_t_offset_trial,cor_sac_dur_trial,cor_sac_vpeak_trial,cor_sac_dist_trial,cor_sac_amp_trial,cor_sac_dist_ang_trial,cor_sac_amp_ang_trial
0,21677.03106,3.7246368,1,1,2,1,1,1,5,2,42.5,n/a,n/a,21587860.0,21591586.0,0.0,0.0,0.0,21590044.0,21588584.0,21590585.0,21588584.0,21589784.0,21590592.0,21591586.0,3726.0,724.0,1200.0,994.0,2001.0,-21590592.0,0.0,0.0,0.0,1.0,0.0,0.0,0.0,0.6473065100533828,-9.401521290400982,0.024230724975261835,-0.9761520632890578,21590024.0,21590097.0,73.0,524.4843138333187,10.098500180038618,11.153505619101175,3.0423673995483753,240.0,3.0414916621718286,1.0,-9.404982822540306,-9.467290401048116,-0.9796135954283776,-1.0557673024934828,21590099.0,21590118.0,19.0,23.427580870117065,0.09839523077499657,0.1648866961925708,2.2565258377011603,-2.4602944283019355
1,21680.76386,3.507858,1,2,2,2,1,2,4,2,42.5,n/a,n/a,21591592.0,21595102.0,0.0,0.0,0.0,21593558.0,21592109.0,21594101.0,21592109.0,21593102.0,21594108.0,21595102.0,3510.0,517.0,993.0,994.0,1992.0,-21594108.0,0.0,0.0,0.0,1.0,0.0,0.0,0.0,0.4430761138333289,10.495365446427018,0.08653830348307236,-0.6992294921432263,21593544.0,21593619.0,75.0,482.97436441196334,10.082953528347748,10.630748429985472,0.07800941663924504,442.0,0.08508817515730539,0.0,0.0,0.0,0.0,0.0,0.0,0.0,0.0,0.0,0.0,0.0,0.0,0.0
2,21684.28004,3.5078285,1,3,2,1,2,2,3,1,42.5,n/a,n/a,21595108.0,21598617.0,0.0,0.0,0.0,21596834.0,21595625.0,21597618.0,21595625.0,21596418.0,21597624.0,21598617.0,3509.0,517.0,793.0,993.0,1993.0,-21597624.0,0.0,0.0,0.0,1.0,0.0,0.0,0.0,0.15576894626953025,-10.748057292597586,0.14538434985156315,1.6373047018997295,21596819.0,21596884.0,65.0,587.2788496507417,11.005419255269768,11.881973155233883,-3.0056116368999426,401.0,-3.0124678751678564,1.0,0.05884604636849078,0.3911531317434855,0.9934597239856703,0.7961523920442657,21597613.0,21597643.0,30.0,32.889615653722366,0.38646886320667495,0.36139456524975794,0.535811237960467,0.6358384235237455
3,21687.7962,3.5078609,1,4,2,1,2,1,4,1,42.5,n/a,n/a,21598624.0,21602134.0,0.0,0.0,0.0,21600551.0,21599141.0,21601134.0,21599141.0,21600134.0,21601141.0,21602134.0,3510.0,517.0,993.0,993.0,1993.0,-21601141.0,0.0,0.0,0.0,1.0,0.0,0.0,0.0,0.4880760316445289,-9.50536725458067,0.017307660696614473,1.1146133488619716,21600536.0,21600601.0,65.0,570.0482988215169,10.05350627832298,11.015499231868036,-3.0322282073611055,402.0,-3.0373900901376922,1.0,0.4880760316445289,-9.50536725458067,0.017307660696614473,1.1146133488619716,21600536.0,21600601.0,65.0,570.0482988215169,10.05350627832298,11.015499231868036,-3.0322282073611055,-3.0373900901376922
4,21691.31238,3.5161614,1,5,2,2,1,2,1,1,42.5,n/a,n/a,21602141.0,21605659.0,0.0,0.0,0.0,21603409.0,21602666.0,21604659.0,21602667.0,21603059.0,21604665.0,21605660.0,3518.0,526.0,392.0,995.0,1993.0,-21604665.0,0.0,0.0,0.0,1.0,0.0,0.0,0.0,0.1626920105481776,9.993443286225197,0.43269151741536177,0.8411523098554617,21603384.0,21603471.0,87.0,470.15322186245504,9.839233245694817,10.275638469575089,-0.0415254110508512,325.0,-0.061010922548605226,1.0,0.22499958905598813,0.38769159960416577,0.6784602993072881,0.6853833635859315,21604246.0,21604267.0,21.0,49.04176551528159,0.16283924316704057,0.3745019447440468,-0.042527534619769304,-0.14843290925008612
5,21694.84521,3.5078355,1,6,2,2,2,1,5,2,42.5,n/a,n/a,21605675.0,21609183.0,0.0,0.0,0.0,21607591.0,21606191.0,21608183.0,21606192.0,21607382.0,21608190.0,21609184.0,3508.0,517.0,1190.0,994.0,1992.0,-21608190.0,0.0,0.0,0.0,1.0,0.0,0.0,0.0,0.294230231842446,9.494982658162698,0.4049992603007802,1.6338431697604057,21607568.0,21607639.0,71.0,492.31836150071496,9.282451323020984,10.08443174305038,-0.1327733164231508,186.0,-0.1318483613378504,0.0,0.0,0.0,0.0,0.0,0.0,0.0,0.0,0.0,0.0,0.0,0.0,0.0
6,21698.36151,3.5994591,1,7,2,2,2,2,4,1,42.5,n/a,n/a,21609190.0,21612790.0,0.0,0.0,0.0,21611006.0,21609799.0,21611791.0,21609799.0,21610789.0,21611797.0,21612790.0,3600.0,609.0,990.0,993.0,1992.0,-21611797.0,0.0,0.0,0.0,1.0,0.0,0.0,0.0,0.3080763603997368,9.373829033286396,0.3773070031861947,1.2219208451809822,21610988.0,21611066.0,78.0,459.7547311264275,9.105012030087648,9.298070313959611,-0.0928971739370033,199.0,-0.10255806841755724,0.0,0.0,0.0,0.0,0.0,0.0,0.0,0.0,0.0,0.0,0.0,0.0,0.0
7,21701.9692,3.5078251,1,8,2,2,1,2,2,1,42.5,n/a,n/a,21612797.0,21616307.0,0.0,0.0,0.0,21614097.0,21613314.0,21615307.0,21613314.0,21613907.0,21615313.0,21616307.0,3510.0,517.0,593.0,994.0,1993.0,-21615313.0,0.0,0.0,0.0,1.0,0.0,0.0,0.0,0.0553845142291671,9.342675244032495,0.38423006746484206,0.7303832813971315,21614076.0,21614163.0,87.0,483.6757485802518,9.293739352241728,9.348030170669512,-0.03725446609916522,169.0,-0.06410499323147133,0.0,0.0,0.0,0.0,0.0,0.0,0.0,0.0,0.0,0.0,0.0,0.0,0.0
8,21705.4855,3.5077184,1,9,2,2,2,2,5,1,42.5,n/a,n/a,21616314.0,21619823.0,0.0,0.0,0.0,21618256.0,21616830.0,21618822.0,21616830.0,21618023.0,21618830.0,21619823.0,3509.0,516.0,1193.0,993.0,1992.0,-21618830.0,0.0,0.0,0.0,1.0,0.0,0.0,0.0,0.1626920105481776,8.965368240846296,0.1730766069661447,1.4919203520481683,21618236.0,21618320.0,84.0,490.92132000106585,8.90092453846214,9.071658087374429,-0.1487168806727794,213.0,-0.153229543009587,0.0,0.0,0.0,0.0,0.0,0.0,0.0,0.0,0.0,0.0,0.0,0.0,0.0
9,21709.00153,3.5078264,1,10,2,1,1,1,3,1,42.5,n/a,n/a,21619829.0,21623339.0,0.0,0.0,0.0,21621379.0,21620346.0,21622339.0,21620346.0,21621139.0,21622346.0,21623339.0,3510.0,517.0,793.0,993.0,1993.0,-21622346.0,0.0,0.0,0.0,1.0,0.0,0.0,0.0,0.2561533783098934,-9.463828868908793,0.1107690284583342,0.33576861751432235,21621362.0,21621433.0,71.0,512.0809406322178,9.722586060371068,10.432989532870499,-3.1184486386558117,223.0,-3.0971185121259404,1.0,-2.8488409506627406,-2.4299955618046734,0.4846144995052052,0.46730683880859075,21622191.0,21622212.0,21.0,44.93330057583958,0.4192028326317161,0.4234544770186902,0.04129881836960643,0.1476773370478231
10,21712.51769,3.5078351,1,11,2,2,2,1,2,1,42.5,n/a,n/a,21623345.0,21626855.0,0.0,0.0,0.0,21624912.0,21623862.0,21625855.0,21623862.0,21624456.0,21625862.0,21626855.0,3510.0,517.0,594.0,993.0,1993.0,-21625862.0,0.0,0.0,0.0,1.0,0.0,0.0,0.0,-0.07269217492578157,9.207675490598898,0.21807652477734077,0.9449982740351486,21624893.0,21624977.0,84.0,477.8715152241288,9.308793650997966,9.587097432854534,-0.07816937488788378,437.0,-0.09546518511662695,0.0,0.0,0.0,0.0,0.0,0.0,0.0,0.0,0.0,0.0,0.0,0.0,0.0
11,21716.03387,3.5077988,1,12,2,2,2,2,3,2,42.5,n/a,n/a,21626862.0,21630371.0,0.0,0.0,0.0,21628412.0,21627378.0,21629371.0,21627378.0,21628172.0,21629378.0,21630371.0,3509.0,516.0,794.0,993.0,1993.0,-21629378.0,0.0,0.0,0.0,1.0,0.0,0.0,0.0,0.05192298208984342,9.934597239856707,0.2319226533346355,1.3084591486640544,21628398.0,21628474.0,76.0,467.7841582656218,9.941135815936928,9.973625638918062,-0.10850387527508243,226.0,-0.11268857018698902,0.0,0.0,0.0,0.0,0.0,0.0,0.0,0.0,0.0,0.0,0.0,0.0,0.0
12,21719.55,3.5078352,1,13,2,2,1,2,3,1,42.5,n/a,n/a,21630378.0,21633887.0,0.0,0.0,0.0,21631954.0,21630894.0,21632888.0,21630895.0,21631687.0,21632894.0,21633887.0,3509.0,517.0,792.0,993.0,1994.0,-21632894.0,0.0,0.0,0.0,1.0,0.0,0.0,0.0,0.09346136776171972,8.723060991093694,0.28384563542447894,0.38423006746484206,21631936.0,21631986.0,50.0,442.3321763418656,8.63018346810816,8.912338171861641,-0.011632046548188885,249.0,-0.036128850512775354,1.0,8.716137926815046,9.11075259069786,0.38423006746484206,0.4292299852760381,21631992.0,21632019.0,27.0,47.8845279273024,0.39717216110190806,0.5006792442347634,-0.11354460487264995,-0.2801989919538531
13,21723.06616,3.5078734,1,14,2,2,1,1,3,2,42.5,n/a,n/a,21633894.0,21637404.0,0.0,0.0,0.0,21635411.0,21634411.0,21636403.0,21634411.0,21635204.0,21636410.0,21637404.0,3510.0,517.0,793.0,994.0,1992.0,-21636410.0,0.0,0.0,0.0,1.0,0.0,0.0,0.0,0.16615354268749735,9.533059511695255,0.34961474607161314,-0.6196142529387973,21635389.0,21635474.0,85.0,472.1781635509341,9.416917345116493,10.064136073030845,0.10310682475185992,185.0,0.118595672560577,1.0,-0.7165371528398408,-0.9034598883632762,0.2596149104492171,0.2284611211953118,21636677.0,21636702.0,25.0,25.38456902170175,0.18950110195046613,0.22953377592988705,2.9764439761751698,2.7386810627362688
14,21726.58236,3.5078396,1,15,2,1,2,1,2,2,42.5,n/a,n/a,21637410.0,21640920.0,0.0,0.0,0.0,21638720.0,21637927.0,21639919.0,21637927.0,21638520.0,21639926.0,21640920.0,3510.0,517.0,593.0,994.0,1992.0,-21639926.0,0.0,0.0,0.0,1.0,0.0,0.0,0.0,0.22499958905598813,-9.339213711893168,0.24923031403124998,0.5953835279635394,21638703.0,21638769.0,66.0,496.55125878130065,9.570475333731778,10.179594474552747,-3.1054158997199,183.0,-3.090904070696089,1.0,0.22499958905598813,-9.339213711893168,0.24923031403124998,0.5953835279635394,21638703.0,21638769.0,66.0,496.55125878130065,9.570475333731778,10.179594474552747,-3.1054158997199,-3.090904070696089
15,21730.09851,3.507829,1,16,2,1,2,2,4,1,42.5,n/a,n/a,21640926.0,21644435.0,0.0,0.0,0.0,21642326.0,21641443.0,21643436.0,21641443.0,21642436.0,21643443.0,21644435.0,3509.0,517.0,993.0,992.0,1993.0,-21643443.0,0.0,0.0,0.0,0.0,0.0,1.0,0.0,0.328845553235675,-9.148829444230408,0.18346120338411182,0.4949990959231723,21642308.0,21642381.0,73.0,433.91363542488386,9.482793850763677,9.997447765552199,-3.1087337761269054,-128.0,3.094833002037098,0.0,0.0,0.0,0.0,0.0,0.0,0.0,0.0,0.0,0.0,0.0,0.0,0.0
16,21733.61478,3.5077273,1,17,2,2,2,2,4,1,42.5,n/a,n/a,21644443.0,21647951.0,0.0,0.0,0.0,21646185.0,21644959.0,21646952.0,21644959.0,21645952.0,21646959.0,21647952.0,3508.0,516.0,993.0,993.0,1993.0,-21646959.0,0.0,0.0,0.0,1.0,0.0,0.0,0.0,0.27346103900650787,9.944981836274675,0.3461532139322894,0.8930752919453052,21646160.0,21646204.0,44.0,466.1933347175602,9.686972607136285,9.672769544280994,-0.05648958519872641,208.0,-0.07737572278227121,1.0,9.948443368414,9.439598143933534,0.8965368240846289,1.0869210917473882,21646206.0,21646234.0,28.0,120.33769201836922,0.5432951608932864,1.1292131177293694,-2.7835676953361035,-2.903305340408734
17,21737.13085,3.5078459,1,18,2,1,2,2,4,1,42.5,n/a,n/a,21647959.0,21651468.0,0.0,0.0,0.0,21649285.0,21648475.0,21650468.0,21648475.0,21649469.0,21650475.0,21651468.0,3509.0,516.0,994.0,993.0,1993.0,-21650475.0,0.0,0.0,0.0,0.0,0.0,1.0,0.0,0.031153789253905263,-9.699213054382751,0.08307677134374868,0.05192298208984342,21649263.0,21649330.0,67.0,483.67574858024983,9.730416716170406,10.269047427172298,3.138390956952513,-206.0,-3.1085524051662126,0.0,0.0,0.0,0.0,0.0,0.0,0.0,0.0,0.0,0.0,0.0,0.0,0.0
18,21740.64702,3.5078282,1,19,2,2,2,2,1,2,42.5,n/a,n/a,21651475.0,21654984.0,0.0,0.0,0.0,21653141.0,21651991.0,21653985.0,21651991.0,21652384.0,21653991.0,21654984.0,3509.0,516.0,393.0,993.0,1994.0,-21653991.0,0.0,0.0,0.0,0.0,0.0,0.0,1.0,0.22153805691666445,10.17690448960931,0.21807652477734077,1.0626903667721281,21653127.0,21653196.0,69.0,467.7969654978831,9.991130734369992,10.526102614229181,-0.08463737532267653,743.0,-0.08461595567393469,0.0,0.0,0.0,0.0,0.0,0.0,0.0,0.0,0.0,0.0,0.0,0.0,0.0
19,21744.16318,3.5078442,1,20,2,2,2,1,4,2,42.5,n/a,n/a,21654991.0,21658500.0,0.0,0.0,0.0,21656700.0,21655507.0,21657501.0,21655508.0,21656500.0,21657507.0,21658501.0,3509.0,517.0,992.0,994.0,1994.0,-21657507.0,0.0,0.0,0.0,1.0,0.0,0.0,0.0,0.15923047840885393,9.179983233484318,0.1349997534335921,1.1249979452799406,21656680.0,21656752.0,72.0,435.6926425551294,9.074914693156108,9.683244370735002,-0.10930928601722262,180.0,-0.10493307225311486,0.0,0.0,0.0,0.0,0.0,0.0,0.0,0.0,0.0,0.0,0.0,0.0,0.0
20,21747.67947,3.5077725,1,21,2,2,2,2,3,2,42.5,n/a,n/a,21658507.0,21662017.0,0.0,0.0,0.0,21659800.0,21659024.0,21661016.0,21659024.0,21659817.0,21661023.0,21662017.0,3510.0,517.0,793.0,994.0,1992.0,-21661023.0,0.0,0.0,0.0,0.0,0.0,1.0,0.0,0.05192298208984342,9.636905475874942,0.33576861751432235,0.792690859904942,21659778.0,21659835.0,57.0,491.8628212313127,9.595867201131853,10.286215191879483,-0.047634578028571996,-39.0,-0.06128526163390953,0.0,0.0,0.0,0.0,0.0,0.0,0.0,0.0,0.0,0.0,0.0,0.0,0.0
21,21751.19554,3.5077857,1,22,2,1,1,2,2,2,42.5,n/a,n/a,21662023.0,21665533.0,0.0,0.0,0.0,21663499.0,21662540.0,21664532.0,21662540.0,21663133.0,21664539.0,21665533.0,3510.0,517.0,593.0,994.0,1992.0,-21664539.0,0.0,0.0,0.0,1.0,0.0,0.0,0.0,0.020769192835938154,-10.149212232494728,0.2596149104492171,0.2526918461705697,21663485.0,21663573.0,88.0,538.5034790406884,10.169983781717145,10.98271052827376,3.1409119185009344,352.0,-3.099661409835714,1.0,-1.5819201876705644,-1.1492286702552026,0.6438449779140591,0.6473065100533828,21664436.0,21664461.0,25.0,23.78710439483157,0.4327053633223881,0.4371546449286749,-0.007999829339888452,-0.1430168749647524
22,21754.71169,3.5078578,1,23,2,1,2,1,2,1,42.5,n/a,n/a,21665539.0,21669048.0,0.0,0.0,0.0,21666849.0,21666056.0,21668049.0,21666056.0,21666649.0,21668056.0,21669048.0,3509.0,517.0,593.0,992.0,1993.0,-21668056.0,0.0,0.0,0.0,1.0,0.0,0.0,0.0,0.1107690284583342,-10.343058032296806,0.46730683880859075,0.5365374815950487,21666822.0,21666895.0,73.0,528.8244882841103,10.454056298780731,11.195663638282072,-3.1349702338471253,173.0,-3.113143789078388,0.0,0.0,0.0,0.0,0.0,0.0,0.0,0.0,0.0,0.0,0.0,0.0,0.0
23,21758.22786,3.5078389,1,24,2,2,2,2,4,1,42.5,n/a,n/a,21669055.0,21672565.0,0.0,0.0,0.0,21670382.0,21669572.0,21671565.0,21669572.0,21670566.0,21671572.0,21672565.0,3510.0,517.0,994.0,993.0,1993.0,-21671572.0,0.0,0.0,0.0,0.0,0.0,1.0,0.0,0.08307677134374868,9.816905147119725,0.28384563542447894,0.4257684531367144,21670369.0,21670450.0,81.0,444.5029753827107,9.734862964379568,9.887090816370227,-0.014579336775368448,-197.0,0.03992271488557875,0.0,0.0,0.0,0.0,0.0,0.0,0.0,0.0,0.0,0.0,0.0,0.0,0.0
24,21761.74404,3.5078196,1,25,2,2,1,2,5,1,42.5,n/a,n/a,21672572.0,21676081.0,0.0,0.0,0.0,21674098.0,21673088.0,21675081.0,21673088.0,21674281.0,21675088.0,21676081.0,3509.0,516.0,1193.0,993.0,1993.0,-21675088.0,0.0,0.0,0.0,0.0,0.0,1.0,0.0,0.10384596417968683,9.633443943735614,0.3080763603997368,0.4119223245794236,21674083.0,21674176.0,93.0,365.3392591535626,9.530163778038279,9.56557689456297,-0.010896771737834156,-198.0,-0.04162751409309083,0.0,0.0,0.0,0.0,0.0,0.0,0.0,0.0,0.0,0.0,0.0,0.0,0.0
25,21765.26018,3.5078395,1,26,2,2,1,1,4,1,42.5,n/a,n/a,21676088.0,21679597.0,0.0,0.0,0.0,21677731.0,21676604.0,21678598.0,21676604.0,21677597.0,21678604.0,21679597.0,3509.0,516.0,993.0,993.0,1994.0,-21678604.0,0.0,0.0,0.0,1.0,0.0,0.0,0.0,-0.3530762782109368,8.376907777161405,0.418845388858071,0.3634608746289039,21677706.0,21677749.0,43.0,440.6283262035791,8.73015973802723,8.750274672826356,0.006344086180201088,109.0,0.02611199007737809,1.0,8.380369309300724,8.688445669700466,0.34961474607161314,0.3080763603997368,21677751.0,21677786.0,35.0,50.195531554489754,0.3108640881822416,0.571603673156214,0.13402320158006706,0.19502026740491948
26,21768.77636,3.5079321,1,27,2,1,2,2,3,1,42.5,n/a,n/a,21679604.0,21683113.0,0.0,0.0,0.0,21681113.0,21680120.0,21682114.0,21680120.0,21680914.0,21682120.0,21683114.0,3509.0,516.0,794.0,994.0,1994.0,-21682120.0,0.0,0.0,0.0,1.0,0.0,0.0,0.0,-0.24576878189192627,-11.336517756282479,0.45346071025129997,0.5503836101523394,21681094.0,21681165.0,71.0,505.42353527105575,11.091172474606564,11.614579842983316,-3.132853799896772,180.0,-3.1043298621117317,0.0,0.0,0.0,0.0,0.0,0.0,0.0,0.0,0.0,0.0,0.0,0.0,0.0
27,21772.29251,3.5078649,1,28,2,2,2,1,2,2,42.5,n/a,n/a,21683120.0,21686630.0,0.0,0.0,0.0,21684447.0,21683637.0,21685629.0,21683637.0,21684230.0,21685636.0,21686630.0,3510.0,517.0,593.0,994.0,1992.0,-21685636.0,0.0,0.0,0.0,1.0,0.0,0.0,0.0,-0.1488458819908829,9.841135872094988,0.5019221602018197,0.33230708537499865,21684429.0,21684503.0,74.0,453.8132589961181,9.99142155654425,10.070334133432127,0.016976885794724464,199.0,0.028877802177754486,1.0,6.680757028893186,6.113065758044228,0.48115296736588153,0.6126911886601539,21685092.0,21685123.0,31.0,101.42348238558432,0.5827312267755742,0.9528963616645967,-2.9139033338211346,2.8543112001926616
28,21775.8087,3.5078002,1,29,2,1,2,2,2,1,42.5,n/a,n/a,21686636.0,21690146.0,0.0,0.0,0.0,21688019.0,21687153.0,21689146.0,21687153.0,21687746.0,21689152.0,21690146.0,3510.0,517.0,593.0,994.0,1993.0,-21689152.0,0.0,0.0,0.0,1.0,0.0,0.0,0.0,-0.08653830348307236,-10.844980192498626,0.21807652477734077,0.1488458819908829,21688002.0,21688070.0,68.0,516.0211947990789,10.758664636525538,11.725791313449632,3.135157735975634,256.0,3.0964106577924397,1.0,-0.882690695527338,-0.33923014965364207,0.2007688640807263,0.14192281771223947,21688977.0,21689011.0,34.0,37.765264522536754,0.5466371942106919,0.5505577477434581,0.10786002567207915,-0.19616251485210143
29,21779.32484,3.5078258,1,30,2,2,1,2,4,1,42.5,n/a,n/a,21690152.0,21693661.0,0.0,0.0,0.0,21691646.0,21690669.0,21692662.0,21690669.0,21691662.0,21692669.0,21693662.0,3509.0,517.0,993.0,993.0,1993.0,-21692669.0,0.0,0.0,0.0,0.0,0.0,1.0,0.0,0.2699995068671842,9.539982575973895,0.23538418547395523,0.5296144173164012,21691625.0,21691707.0,82.0,476.0291955672213,9.274651342819046,9.423778875367377,-0.03172945230442255,-37.0,-0.04225424658098777,0.0,0.0,0.0,0.0,0.0,0.0,0.0,0.0,0.0,0.0,0.0,0.0,0.0
30,21782.841,3.5078599,1,31,2,2,1,2,3,2,42.5,n/a,n/a,21693668.0,21697178.0,0.0,0.0,0.0,21695268.0,21694185.0,21696178.0,21694185.0,21694978.0,21696185.0,21697178.0,3510.0,517.0,793.0,993.0,1993.0,-21696185.0,0.0,0.0,0.0,1.0,0.0,0.0,0.0,-0.1869227355234355,10.273827389510348,0.4292299852760381,-0.4603837745299434,21695257.0,21695297.0,40.0,498.51204091543457,10.498509695191526,10.439742203113925,0.08483888366243982,279.0,0.08897881289575614,1.0,10.266904325231701,10.20459674672389,-0.46384530666926704,-0.4603837745299434,21695299.0,21695339.0,40.0,76.37192548211385,0.062403658099974744,0.6912151852092919,-3.0860941483440625,2.924553255431537
31,21786.35718,3.5078712,1,32,2,2,2,1,2,2,42.5,n/a,n/a,21697185.0,21700694.0,0.0,0.0,0.0,21698701.0,21697701.0,21699694.0,21697701.0,21698294.0,21699701.0,21700694.0,3509.0,516.0,593.0,993.0,1993.0,-21699701.0,0.0,0.0,0.0,1.0,0.0,0.0,0.0,-0.0553845142291671,9.501905722441345,0.4707683709479144,1.1630747988124932,21698687.0,21698765.0,78.0,360.803269564283,9.58233191128444,9.933792129636355,-0.0723112221050547,393.0,-0.07359152943469652,0.0,0.0,0.0,0.0,0.0,0.0,0.0,0.0,0.0,0.0,0.0,0.0,0.0
32,21789.87334,3.5078352,1,33,2,1,1,1,1,2,42.5,n/a,n/a,21700701.0,21704210.0,0.0,0.0,0.0,21702111.0,21701217.0,21703210.0,21701217.0,21701611.0,21703217.0,21704211.0,3509.0,516.0,394.0,994.0,1993.0,-21703217.0,0.0,0.0,0.0,1.0,0.0,0.0,0.0,-0.2284611211953118,-10.478057785730403,0.5261528851770815,0.09692289990103947,21702084.0,21702143.0,59.0,515.8963701954006,10.258580319221025,11.061970332040012,3.0997393648241536,473.0,3.100588402765826,1.0,-0.2284611211953118,-10.478057785730403,0.5261528851770815,0.09692289990103947,21702084.0,21702143.0,59.0,515.8963701954006,10.258580319221025,11.061970332040012,3.0997393648241536,3.100588402765826
33,21793.3895,3.5078721,1,34,2,1,2,1,1,1,42.5,n/a,n/a,21704217.0,21707727.0,0.0,0.0,0.0,21705510.0,21704734.0,21706726.0,21704734.0,21705127.0,21706733.0,21707727.0,3510.0,517.0,393.0,994.0,1992.0,-21706733.0,0.0,0.0,0.0,1.0,0.0,0.0,0.0,-0.10384596417968683,-10.066135461150976,0.498460628062496,0.3634608746289039,21705493.0,21705561.0,68.0,509.52536784640927,9.96320415101947,10.673834031923194,3.128042405830587,366.0,3.1098058296749884,1.0,-0.10384596417968683,-10.066135461150976,0.498460628062496,0.3634608746289039,21705493.0,21705561.0,68.0,509.52536784640927,9.96320415101947,10.673834031923194,3.128042405830587,3.1098058296749884
34,21796.90571,3.5078003,1,35,2,2,1,1,1,1,42.5,n/a,n/a,21707733.0,21711242.0,0.0,0.0,0.0,21709126.0,21708250.0,21710243.0,21708250.0,21708642.0,21710249.0,21711242.0,3509.0,517.0,392.0,993.0,1993.0,-21710249.0,0.0,0.0,0.0,1.0,0.0,0.0,0.0,0.044999917811196055,9.858443532791602,0.5088452244804671,0.5676912708489539,21709104.0,21709195.0,91.0,427.6397284030079,9.813620047748584,9.818338600114958,-0.005996400791599172,462.0,-0.04126097255347891,1.0,-0.048461449950519736,0.24923031403124998,0.6611526386106736,0.46730683880859075,21709882.0,21709903.0,21.0,53.7033529297533,0.3552415803977441,0.46843368326307955,0.5771922138734615,-0.5264787050999821
35,21800.42183,3.5078521,1,36,2,1,2,2,4,2,42.5,n/a,n/a,21711249.0,21714758.0,0.0,0.0,0.0,21713016.0,21711766.0,21713759.0,21711766.0,21712759.0,21713766.0,21714758.0,3509.0,517.0,993.0,992.0,1993.0,-21713766.0,0.0,0.0,0.0,1.0,0.0,0.0,0.0,0.6299988493567683,-9.14536791209109,-0.1488458819908829,0.6611526386106736,21712998.0,21713064.0,66.0,504.72533532670525,9.80886807558325,10.500274034382262,-3.0589203273583285,239.0,-3.047500456333709,0.0,0.0,0.0,0.0,0.0,0.0,0.0,0.0,0.0,0.0,0.0,0.0,0.0
36,21803.93806,3.5078108,1,37,2,1,2,1,1,2,42.5,n/a,n/a,21714765.0,21718275.0,0.0,0.0,0.0,21716009.0,21715282.0,21717275.0,21715282.0,21715675.0,21717282.0,21718275.0,3510.0,517.0,393.0,993.0,1993.0,-21717282.0,0.0,0.0,0.0,1.0,0.0,0.0,0.0,0.18346120338411182,-9.467290401048116,0.3807685353255184,0.3634608746289039,21715992.0,21716047.0,55.0,533.6541188764575,9.650767124201579,10.878630691551717,3.1397992552255407,317.0,3.1084942709756196,1.0,-9.778828293587177,-9.941520304135354,0.4569222423906236,0.4119223245794236,21716066.0,21716085.0,19.0,36.14406115728416,0.16880071948668668,0.22221310893194637,2.871743497651313,2.824768167721575
37,21807.4542,3.5078242,1,38,2,2,1,2,1,1,42.5,n/a,n/a,21718281.0,21721791.0,0.0,0.0,0.0,21719648.0,21718798.0,21720792.0,21718798.0,21719191.0,21720798.0,21721791.0,3510.0,517.0,393.0,993.0,1994.0,-21720798.0,0.0,0.0,0.0,1.0,0.0,0.0,0.0,0.0553845142291671,9.965751029110615,0.1384612855729158,0.3253840210963513,21719631.0,21719704.0,73.0,461.28550691038305,9.91212916422799,10.210307616104455,-0.018859098102596797,440.0,-0.04239060656552282,0.0,0.0,0.0,0.0,0.0,0.0,0.0,0.0,0.0,0.0,0.0,0.0,0.0
38,21810.97035,3.5078396,1,39,2,1,2,1,1,1,42.5,n/a,n/a,21721798.0,21725307.0,0.0,0.0,0.0,21723025.0,21722314.0,21724307.0,21722314.0,21722708.0,21724314.0,21725307.0,3509.0,516.0,394.0,993.0,1993.0,-21724314.0,0.0,0.0,0.0,1.0,0.0,0.0,0.0,0.1903842676627592,-9.238829279852805,0.5088452244804671,0.2284611211953118,21723003.0,21723075.0,72.0,466.5655114063343,9.433381332800348,9.81930510162678,3.1118657303279913,295.0,3.107038511345486,1.0,-11.090748974390554,-6.490372761230427,0.1488458819908829,0.38769159960416577,21723734.0,21723779.0,45.0,303.1498791279259,4.606572324346129,4.62653551106279,-0.05187216125676689,0.11321856399868095
39,21814.48659,3.5077619,1,40,2,1,2,2,1,2,42.5,n/a,n/a,21725314.0,21728824.0,0.0,0.0,0.0,21726841.0,21725830.0,21727823.0,21725830.0,21726224.0,21727830.0,21728824.0,3510.0,516.0,394.0,994.0,1993.0,-21727830.0,0.0,0.0,0.0,0.0,0.0,0.0,1.0,-0.14192281771223947,-9.11421412283718,0.5607682065703105,1.0696134310507737,21726820.0,21726887.0,67.0,465.4055385296202,8.986708781667357,9.551764103948647,-3.0849403766619496,596.0,-3.0683228881990074,0.0,0.0,0.0,0.0,0.0,0.0,0.0,0.0,0.0,0.0,0.0,0.0,0.0
40,21818.00268,3.5078479,1,41,2,2,1,1,1,1,42.5,n/a,n/a,21728830.0,21732339.0,0.0,0.0,0.0,21730240.0,21729347.0,21731339.0,21729347.0,21729740.0,21731346.0,21732339.0,3509.0,517.0,393.0,993.0,1992.0,-21731346.0,0.0,0.0,0.0,1.0,0.0,0.0,0.0,-0.5053836923411433,9.11421412283718,0.373845471046871,0.6749987671679644,21730208.0,21730285.0,77.0,336.91702817597985,9.624310647186539,9.749996257023913,-0.03129600373858436,468.0,-0.034444630779770086,1.0,-0.5053836923411433,9.11421412283718,0.373845471046871,0.6749987671679644,21730208.0,21730285.0,77.0,336.91702817597985,9.624310647186539,9.749996257023913,-0.03129600373858436,-0.034444630779770086
41,21821.51886,3.5078137,1,42,2,2,1,2,3,1,42.5,n/a,n/a,21732346.0,21735855.0,0.0,0.0,0.0,21733579.0,21732863.0,21734856.0,21732863.0,21733656.0,21734862.0,21735855.0,3509.0,517.0,793.0,993.0,1993.0,-21734862.0,0.0,0.0,0.0,0.0,0.0,1.0,0.0,0.22153805691666445,10.159596828912695,-0.031153789253905263,0.578075867266925,21733561.0,21733660.0,99.0,465.6000211784833,9.956714966796616,9.981076873967353,-0.06122606246997412,-95.0,-0.08507089741764193,0.0,0.0,0.0,0.0,0.0,0.0,0.0,0.0,0.0,0.0,0.0,0.0,0.0
42,21825.03503,3.6661423,1,43,2,1,2,2,4,1,42.5,n/a,n/a,21735862.0,21739530.0,0.0,0.0,0.0,21737329.0,21736539.0,21738530.0,21736539.0,21737530.0,21738537.0,21739530.0,3668.0,677.0,991.0,993.0,1991.0,-21738537.0,0.0,0.0,0.0,0.0,0.0,1.0,0.0,0.19730733194140657,-10.43998093219785,0.3530762782109368,0.6023065922421829,21737315.0,21737385.0,70.0,535.3603239204534,10.640207580861702,11.166607063127252,-3.1181670664362127,-215.0,-3.0863864655515147,0.0,0.0,0.0,0.0,0.0,0.0,0.0,0.0,0.0,0.0,0.0,0.0,0.0
43,21828.70951,3.5079714,1,44,2,1,1,1,3,1,42.5,n/a,n/a,21739537.0,21743047.0,0.0,0.0,0.0,21741263.0,21740053.0,21742046.0,21740053.0,21740847.0,21742053.0,21743047.0,3510.0,516.0,794.0,994.0,1993.0,-21742053.0,0.0,0.0,0.0,1.0,0.0,0.0,0.0,0.08307677134374868,-9.034598883632754,0.41538385671874734,0.010384596417967108,21741245.0,21741307.0,62.0,475.384097207591,9.126666080787407,9.629046682393207,3.0972026985227292,398.0,3.0898031526330416,0.0,0.0,0.0,0.0,0.0,0.0,0.0,0.0,0.0,0.0,0.0,0.0,0.0
44,21832.22592,3.5076123,1,45,2,2,1,2,3,1,42.5,n/a,n/a,21743053.0,21746562.0,0.0,0.0,0.0,21744803.0,21743569.0,21745562.0,21743569.0,21744363.0,21745569.0,21746562.0,3509.0,516.0,794.0,993.0,1993.0,-21745569.0,0.0,0.0,0.0,1.0,0.0,0.0,0.0,-0.5261528851770815,10.298058114485611,0.36692240676822757,0.04153838567187631,21744779.0,21744837.0,58.0,325.9737066312619,10.82910054096847,10.851734871531093,0.030051711223303558,416.0,0.04339547223579318,1.0,-0.5261528851770815,10.298058114485611,0.36692240676822757,0.04153838567187631,21744779.0,21744837.0,58.0,325.9737066312619,10.82910054096847,10.851734871531093,0.030051711223303558,0.04339547223579318
45,21835.74186,3.5078476,1,46,2,2,2,1,2,1,42.5,n/a,n/a,21746569.0,21750078.0,0.0,0.0,0.0,21748179.0,21747086.0,21749079.0,21747086.0,21747678.0,21749085.0,21750078.0,3509.0,517.0,592.0,993.0,1993.0,-21749085.0,0.0,0.0,0.0,1.0,0.0,0.0,0.0,0.07615370706510526,9.508828786719992,0.2699995068671842,1.3084591486640544,21748159.0,21748238.0,79.0,539.3147179956858,9.489665831101915,9.78477664374656,-0.10965017216891021,481.0,-0.11202456805781029,0.0,0.0,0.0,0.0,0.0,0.0,0.0,0.0,0.0,0.0,0.0,0.0,0.0
46,21839.25803,3.5078167,1,47,2,2,2,2,3,1,42.5,n/a,n/a,21750085.0,21753594.0,0.0,0.0,0.0,21751618.0,21750602.0,21752595.0,21750602.0,21751394.0,21752602.0,21753595.0,3509.0,517.0,792.0,993.0,1993.0,-21752602.0,0.0,0.0,0.0,1.0,0.0,0.0,0.0,0.26307644258854074,9.048445012190049,0.20423039622005,0.9069214205025999,21751596.0,21751662.0,66.0,430.13783247350534,8.813425870758165,9.374573591039681,-0.0798143254767089,202.0,-0.08688228340021663,1.0,9.044983480050721,9.609213218760353,0.917306016920567,0.9034598883632762,21751665.0,21751684.0,19.0,50.85102116174081,0.5643996042879217,0.5440334912194427,0.02453495306273449,0.16619470213772178
47,21842.77434,3.5077,1,48,2,2,1,2,5,1,42.5,n/a,n/a,21753602.0,21757111.0,0.0,0.0,0.0,21755501.0,21754118.0,21756111.0,21754118.0,21755311.0,21756118.0,21757111.0,3509.0,516.0,1193.0,993.0,1993.0,-21756118.0,0.0,0.0,0.0,1.0,0.0,0.0,0.0,0.2423072497526026,10.131904571798113,0.3807685353255184,-0.2007688640807263,21755483.0,21755551.0,68.0,432.8487962357621,9.906680621636994,10.274169105160645,0.05873530442366803,172.0,0.10090905548904776,1.0,0.1384612855729158,-0.08307677134374868,0.6161527207994736,0.5815373994062447,21756691.0,21756712.0,21.0,16.24627168168971,0.22422607149385593,0.21027205124142587,2.9865959116658516,2.788602265762882
48,21846.29036,3.5078602,1,49,2,1,1,2,2,1,42.5,n/a,n/a,21757117.0,21760627.0,0.0,0.0,0.0,21758551.0,21757634.0,21759627.0,21757634.0,21758227.0,21759634.0,21760627.0,3510.0,517.0,593.0,993.0,1993.0,-21759634.0,0.0,0.0,0.0,1.0,0.0,0.0,0.0,0.13153822129426843,-9.456905804630148,0.048461449950519736,0.15923047840885393,21758532.0,21758600.0,68.0,494.9338685063986,9.589083825681746,10.118631006852244,-3.130040820890976,305.0,3.095050945406274,1.0,-3.464993671462218,-3.2780709359387825,0.34961474607161314,0.33923014965364207,21759215.0,21759259.0,44.0,47.434078267920924,0.18721097429992814,0.5207621723418245,0.05549850524572966,0.18044803004347193
49,21849.80668,3.5076704,1,50,2,1,1,2,4,2,42.5,n/a,n/a,21760634.0,21764143.0,0.0,0.0,0.0,21762026.0,21761150.0,21763143.0,21761150.0,21762143.0,21763150.0,21764144.0,3509.0,516.0,993.0,994.0,1993.0,-21763150.0,0.0,0.0,0.0,0.0,0.0,1.0,0.0,0.22499958905598813,-10.107673846822852,0.24923031403124998,-0.10038443204036315,21762003.0,21762073.0,70.0,489.22987569096875,10.33858649928446,10.947830223223022,3.1077697113169633,-140.0,3.0814814407758946,0.0,0.0,0.0,0.0,0.0,0.0,0.0,0.0,0.0,0.0,0.0,0.0,0.0
50,21853.32287,3.5076225,1,51,2,1,1,1,4,1,42.5,n/a,n/a,21764150.0,21767660.0,0.0,0.0,0.0,21765750.0,21764666.0,21766659.0,21764666.0,21765659.0,21766666.0,21767660.0,3510.0,516.0,993.0,994.0,1993.0,-21766666.0,0.0,0.0,0.0,1.0,0.0,0.0,0.0,-0.2319226533346355,-9.92767417557806,0.5711528029882775,0.1730766069661447,21765728.0,21765790.0,62.0,493.34423480585184,9.703919941906216,10.35297506249528,3.1005589340663935,69.0,3.0907493318983494,1.0,-2.8142256292695116,-2.343457258321601,1.0003827882643157,0.9103829526419196,21766744.0,21766775.0,31.0,32.53860669126973,0.4792940949949287,0.5221408858846087,0.18889718087762553,0.32384698738403894
51,21856.83883,3.7244891,1,52,2,2,1,2,3,1,42.5,n/a,n/a,21767666.0,21771392.0,0.0,0.0,0.0,21769082.0,21768399.0,21770392.0,21768399.0,21769192.0,21770399.0,21771392.0,3726.0,733.0,793.0,993.0,1993.0,-21770399.0,0.0,0.0,0.0,0.0,0.0,1.0,0.0,-0.006923064278647363,9.48459806174473,0.33230708537499865,1.076536495329421,21769062.0,21769139.0,77.0,463.2083894923236,9.520653900882502,10.114012864347117,-0.07824981886274043,-130.0,-0.07776937098935745,0.0,0.0,0.0,0.0,0.0,0.0,0.0,0.0,0.0,0.0,0.0,0.0,0.0
52,21860.57165,3.5078775,1,53,2,1,2,1,2,2,42.5,n/a,n/a,21771399.0,21774908.0,0.0,0.0,0.0,21772275.0,21771915.0,21773909.0,21771915.0,21772508.0,21773915.0,21774908.0,3509.0,516.0,593.0,993.0,1994.0,-21773915.0,0.0,0.0,0.0,0.0,0.0,1.0,0.0,-0.020769192835938154,-8.56383051268484,0.19730733194140657,-0.15230741413020657,21772261.0,21772321.0,60.0,497.3338892425114,8.550212113472343,9.433523593222759,3.1006916515551364,-247.0,3.0795400684853345,0.0,0.0,0.0,0.0,0.0,0.0,0.0,0.0,0.0,0.0,0.0,0.0,0.0
53,21864.08784,3.5078512,1,54,2,2,1,2,2,2,42.5,n/a,n/a,21774915.0,21778424.0,0.0,0.0,0.0,21776274.0,21775431.0,21777425.0,21775431.0,21776024.0,21777431.0,21778425.0,3509.0,516.0,593.0,994.0,1994.0,-21777431.0,0.0,0.0,0.0,1.0,0.0,0.0,0.0,0.4465376459726526,9.591905558063738,0.01384612855729079,0.21115346049869735,21776257.0,21776340.0,83.0,488.0773955244735,9.147496074377026,9.331789893254523,-0.021571218279343746,233.0,-0.03710249045843851,0.0,0.0,0.0,0.0,0.0,0.0,0.0,0.0,0.0,0.0,0.0,0.0,0.0
54,21867.60415,3.507711,1,55,2,2,2,1,4,2,42.5,n/a,n/a,21778431.0,21781941.0,0.0,0.0,0.0,21779891.0,21778948.0,21780940.0,21778948.0,21779941.0,21780948.0,21781941.0,3510.0,517.0,993.0,993.0,1992.0,-21780948.0,0.0,0.0,0.0,0.0,0.0,1.0,0.0,0.9103829526419196,11.412671463347584,-0.0034615321393236813,1.1353825416979098,21779861.0,21779963.0,102.0,400.8051314868522,10.563854873416918,10.731670806560501,-0.10801564960869413,-80.0,-0.12775566157368232,0.0,0.0,0.0,0.0,0.0,0.0,0.0,0.0,0.0,0.0,0.0,0.0,0.0
55,21871.12021,3.5077921,1,56,2,1,1,2,2,2,42.5,n/a,n/a,21781947.0,21785457.0,0.0,0.0,0.0,21783257.0,21782464.0,21784456.0,21782464.0,21783057.0,21784463.0,21785457.0,3510.0,517.0,593.0,994.0,1992.0,-21784463.0,0.0,0.0,0.0,1.0,0.0,0.0,0.0,0.32192248895702763,-10.775749549712168,-0.1107690284583342,0.07269217492578157,21783229.0,21783291.0,62.0,493.942631565882,11.09918837983243,12.079341642915601,-3.1250626558800296,172.0,3.090274765867778,1.0,-10.77228801757285,-11.121902763644458,0.08653830348307236,0.06576911064713421,21783293.0,21783319.0,26.0,58.051658773698094,0.3502311094716918,0.36902270526559544,3.082256447886419,-2.8465419841984128
56,21874.63636,3.5078115,1,57,2,1,2,2,4,2,42.5,n/a,n/a,21785463.0,21788972.0,0.0,0.0,0.0,21786590.0,21785980.0,21787973.0,21785980.0,21786973.0,21787980.0,21788973.0,3509.0,517.0,993.0,993.0,1993.0,-21787980.0,0.0,0.0,0.0,0.0,0.0,1.0,0.0,0.4603837745299434,-8.16921584880203,0.21807652477734077,-0.03807685353255263,21786575.0,21786626.0,51.0,465.05068431874855,8.633400501090572,9.70466942432835,3.1119182540717647,-398.0,3.1080577641387452,0.0,0.0,0.0,0.0,0.0,0.0,0.0,0.0,0.0,0.0,0.0,0.0,0.0
57,21878.15271,3.5076458,1,58,2,2,2,1,5,1,42.5,n/a,n/a,21788980.0,21792489.0,0.0,0.0,0.0,21790406.0,21789496.0,21791489.0,21789496.0,21790689.0,21791496.0,21792489.0,3509.0,516.0,1193.0,993.0,1993.0,-21791496.0,0.0,0.0,0.0,0.0,0.0,1.0,0.0,0.34961474607161314,9.58152096164577,0.23538418547395523,0.6992294921432263,21790385.0,21790474.0,89.0,404.1407747401992,9.24355152750694,9.231262428619567,-0.0502015045176923,-304.0,-0.06604435548769502,0.0,0.0,0.0,0.0,0.0,0.0,0.0,0.0,0.0,0.0,0.0,0.0,0.0
58,21881.66884,3.5076821,1,59,2,1,1,2,3,1,42.5,n/a,n/a,21792496.0,21796005.0,0.0,0.0,0.0,21794089.0,21793012.0,21795005.0,21793012.0,21793805.0,21795012.0,21796005.0,3509.0,516.0,793.0,993.0,1993.0,-21795012.0,0.0,0.0,0.0,1.0,0.0,0.0,0.0,-0.10730749631901051,-9.23536774771348,0.5676912708489539,0.20769192835937367,21794071.0,21794139.0,68.0,474.24709813993906,9.135156456223429,9.370536292475887,3.1021743262497394,266.0,3.086893295749874,1.0,-1.5923047840885314,-1.1076902845833263,0.4776914352265578,0.5157682887591105,21795148.0,21795167.0,19.0,51.11542148787511,0.4861080743061362,0.49591809054104885,-0.07841033873864334,0.1330127868765066
59,21885.18498,3.5078519,1,60,2,2,1,2,2,2,42.5,n/a,n/a,21796012.0,21799521.0,0.0,0.0,0.0,21797645.0,21796528.0,21798522.0,21796528.0,21797121.0,21798528.0,21799521.0,3509.0,516.0,593.0,993.0,1994.0,-21798528.0,0.0,0.0,0.0,0.0,0.0,0.0,1.0,0.02769225711458158,8.217677298752555,0.4949990959231723,-0.18346120338411182,21797626.0,21797683.0,57.0,393.7994677523443,8.21803889988298,8.814565771308175,0.08265151596284852,505.0,0.08610896931922277,0.0,0.0,0.0,0.0,0.0,0.0,0.0,0.0,0.0,0.0,0.0,0.0,0.0
60,21888.70103,3.4995292,1,61,2,2,1,1,5,1,42.5,n/a,n/a,21799528.0,21803028.0,0.0,0.0,0.0,21801361.0,21800038.0,21802029.0,21800038.0,21801228.0,21802036.0,21803029.0,3500.0,510.0,1190.0,993.0,1991.0,-21802036.0,0.0,0.0,0.0,1.0,0.0,0.0,0.0,0.0692306427864579,10.979979945932223,0.28038410328515523,-0.1869227355234355,21801342.0,21801426.0,84.0,403.56922341235486,10.920752082054289,11.444259768199219,0.042803788874483946,114.0,0.0820611288194803,1.0,2.686148940114563,1.4434589020976485,0.49153756378385255,1.2288439094596275,21802314.0,21802367.0,53.0,65.56636937977405,1.4449564623061297,1.488136782081637,-2.6061032694965545,-2.6259087297797707
61,21892.20888,3.5078194,1,62,2,1,2,2,3,2,42.5,n/a,n/a,21803036.0,21806545.0,0.0,0.0,0.0,21804802.0,21803552.0,21805545.0,21803552.0,21804346.0,21805552.0,21806545.0,3509.0,516.0,794.0,993.0,1993.0,-21805552.0,0.0,0.0,0.0,1.0,0.0,0.0,0.0,0.05192298208984342,-10.232289003838476,0.5503836101523394,1.2253823773203039,21804776.0,21804854.0,78.0,531.0372144681088,10.306339772547284,11.024615228503873,-3.076052192758682,430.0,-3.0551399165054116,0.0,0.0,0.0,0.0,0.0,0.0,0.0,0.0,0.0,0.0,0.0,0.0,0.0
62,21895.72514,3.5077428,1,63,2,2,1,1,2,2,42.5,n/a,n/a,21806552.0,21810061.0,0.0,0.0,0.0,21808095.0,21807068.0,21809061.0,21807068.0,21807661.0,21809068.0,21810061.0,3509.0,516.0,593.0,993.0,1993.0,-21809068.0,0.0,0.0,0.0,1.0,0.0,0.0,0.0,0.1903842676627592,9.657674668710875,0.3946146638828092,-0.07615370706510526,21808082.0,21808122.0,40.0,483.250287878716,9.47898783609636,9.555740508082648,0.04968485280076203,421.0,0.050736253741614036,1.0,1.8138428410051959,1.4399973699583248,0.2769225711458316,0.3911531317434855,21809145.0,21809176.0,31.0,29.41736654222669,0.3909079907046045,0.412053202062162,-2.8450468445200956,2.7720062792169777
63,21899.2412,3.5078502,1,64,2,2,1,2,1,2,42.5,n/a,n/a,21810068.0,21813577.0,0.0,0.0,0.0,21811344.0,21810585.0,21812578.0,21810585.0,21810978.0,21812584.0,21813577.0,3509.0,517.0,393.0,993.0,1993.0,-21812584.0,0.0,0.0,0.0,1.0,0.0,0.0,0.0,0.24576878189192627,8.958445176567649,0.2423072497526026,0.5988450601028592,21811323.0,21811403.0,80.0,438.6747538509839,8.719968415570603,8.82401847889246,-0.04089891279486817,345.0,-0.0498408569836749,0.0,0.0,0.0,0.0,0.0,0.0,0.0,0.0,0.0,0.0,0.0,0.0,0.0
64,21902.75737,3.5078721,1,65,2,1,1,2,5,1,42.5,n/a,n/a,21813584.0,21817094.0,0.0,0.0,0.0,21815234.0,21814101.0,21816094.0,21814101.0,21815293.0,21816100.0,21817094.0,3510.0,517.0,1192.0,994.0,1993.0,-21816100.0,0.0,0.0,0.0,0.0,0.0,1.0,0.0,0.1903842676627592,-9.42575201537624,0.20769192835937367,-0.3011532961210934,21815220.0,21815277.0,57.0,501.3615032652379,9.629589839471652,10.337887611318697,3.0887261934714467,-73.0,3.0866513548242995,0.0,0.0,0.0,0.0,0.0,0.0,0.0,0.0,0.0,0.0,0.0,0.0,0.0
65,21906.2737,3.6243477,1,66,2,1,1,2,2,2,42.5,n/a,n/a,21817101.0,21820726.0,0.0,0.0,0.0,21818727.0,21817733.0,21819726.0,21817734.0,21818327.0,21819733.0,21820726.0,3625.0,633.0,593.0,993.0,1993.0,-21819733.0,0.0,0.0,0.0,1.0,0.0,0.0,0.0,0.079615239204425,-11.513055895387948,0.3461532139322894,-0.3599993424895802,21818713.0,21818757.0,44.0,554.3500194228977,11.614158405487345,11.531877032726474,3.0807541204073234,386.0,3.079417257373738,1.0,-11.474979041855395,-11.028441395882743,-0.3807685353255184,-0.34961474607161314,21818759.0,21818795.0,36.0,77.2170850264844,0.4476230868215744,0.6642715349773354,-0.06965457372856657,-0.2689942726246072
66,21909.90652,3.5076983,1,67,2,1,2,1,4,1,42.5,n/a,n/a,21820733.0,21824242.0,0.0,0.0,0.0,21822243.0,21821250.0,21823243.0,21821250.0,21822243.0,21823249.0,21824242.0,3509.0,517.0,993.0,993.0,1993.0,-21823249.0,0.0,0.0,0.0,0.0,0.0,1.0,0.0,0.05884604636849078,-10.173442957469986,0.4949990959231723,0.43269151741536177,21822224.0,21822284.0,60.0,500.9929197535681,10.232478707156606,11.030008535043313,3.1355034189731557,-19.0,-3.1023540102323137,0.0,0.0,0.0,0.0,0.0,0.0,0.0,0.0,0.0,0.0,0.0,0.0,0.0
67,21913.42255,3.5078327,1,68,2,1,1,1,2,1,42.5,n/a,n/a,21824249.0,21827759.0,0.0,0.0,0.0,21825759.0,21824766.0,21826759.0,21824766.0,21825359.0,21826766.0,21827759.0,3510.0,517.0,593.0,993.0,1993.0,-21826766.0,0.0,0.0,0.0,1.0,0.0,0.0,0.0,0.14192281771223947,-9.823828211398373,0.2423072497526026,0.11769209273697762,21825740.0,21825805.0,65.0,452.3083379423181,9.966530113915137,10.423487176871014,3.129088963463623,381.0,3.103060720875799,1.0,-3.7557623711653405,-2.6411490223033667,-0.024230724975261835,0.20769192835937367,21826788.0,21826821.0,33.0,84.41613256346528,1.1384862909104707,1.1611208946668217,-0.2051473425620887,0.23774813114512394
68,21916.93884,3.5077462,1,69,2,2,2,2,3,1,42.5,n/a,n/a,21827766.0,21831275.0,0.0,0.0,0.0,21829325.0,21828282.0,21830275.0,21828282.0,21829075.0,21830282.0,21831275.0,3509.0,516.0,793.0,993.0,1993.0,-21830282.0,0.0,0.0,0.0,1.0,0.0,0.0,0.0,-0.10730749631901051,10.7653649532942,0.44999917811197626,0.578075867266925,21829307.0,21829392.0,85.0,444.35131970168334,10.873426775165365,10.920135440531507,-0.011779143188855673,232.0,-0.02123967171909452,1.0,9.141906379951761,9.844597404234316,0.6853833635859315,0.6507680421927026,21829687.0,21829707.0,20.0,79.39335852176279,0.7035431017943543,0.7064409585398518,0.049221295118334785,-0.10308160852269488
69,21920.45492,3.6494202,1,70,2,2,2,2,2,2,42.5,n/a,n/a,21831282.0,21834933.0,0.0,0.0,0.0,21832824.0,21831941.0,21833932.0,21831942.0,21832531.0,21833939.0,21834933.0,3651.0,660.0,589.0,994.0,1991.0,-21833939.0,0.0,0.0,0.0,1.0,0.0,0.0,0.0,0.3115378925390605,11.063056717275968,0.16961507482682103,0.7442294099544223,21832800.0,21832880.0,80.0,527.5190871859103,10.766862991271237,10.84036530757163,-0.053394146259036886,269.0,-0.06998793421225984,0.0,0.0,0.0,0.0,0.0,0.0,0.0,0.0,0.0,0.0,0.0,0.0,0.0
70,21924.11266,3.5078332,1,71,2,1,2,2,3,1,42.5,n/a,n/a,21834939.0,21838448.0,0.0,0.0,0.0,21836199.0,21835456.0,21837449.0,21835456.0,21836249.0,21837456.0,21838448.0,3509.0,517.0,793.0,992.0,1993.0,-21837456.0,0.0,0.0,0.0,0.0,0.0,1.0,0.0,0.31499942467838415,-9.716520715079366,-0.020769192835938154,-0.0034615321393236813,21836174.0,21836243.0,69.0,494.4114027763604,10.031535070440821,10.958212483106212,-3.139867327489466,-75.0,-3.100199933118621,0.0,0.0,0.0,0.0,0.0,0.0,0.0,0.0,0.0,0.0,0.0,0.0,0.0
71,21927.62886,3.5078027,1,72,2,2,1,2,4,1,42.5,n/a,n/a,21838456.0,21841965.0,0.0,0.0,0.0,21839882.0,21838972.0,21840965.0,21838972.0,21839966.0,21840972.0,21841965.0,3509.0,516.0,994.0,993.0,1993.0,-21840972.0,0.0,0.0,0.0,0.0,0.0,1.0,0.0,0.4049992603007802,10.433057867919207,0.1349997534335921,0.22153805691666445,21839870.0,21839960.0,90.0,467.4951908194586,10.028431996867692,10.032579565874103,-0.0086294026379025,-96.0,-0.03002204351379091,0.0,0.0,0.0,0.0,0.0,0.0,0.0,0.0,0.0,0.0,0.0,0.0,0.0
72,21931.145,3.5078845,1,73,2,1,2,1,5,2,42.5,n/a,n/a,21841972.0,21845481.0,0.0,0.0,0.0,21842831.0,21842488.0,21844481.0,21842488.0,21843681.0,21844488.0,21845481.0,3509.0,516.0,1193.0,993.0,1993.0,-21844488.0,0.0,0.0,0.0,0.0,0.0,1.0,0.0,0.031153789253905263,-7.5599861922812,0.31499942467838415,-0.0692306427864579,21842811.0,21842863.0,52.0,467.9748074837606,7.600857778172464,8.699560284047394,3.0910202168724994,-870.0,3.091038156442241,0.0,0.0,0.0,0.0,0.0,0.0,0.0,0.0,0.0,0.0,0.0,0.0,0.0
73,21934.66117,3.5078289,1,74,2,2,1,2,4,1,42.5,n/a,n/a,21845488.0,21848997.0,0.0,0.0,0.0,21847297.0,21846004.0,21847998.0,21846004.0,21846997.0,21848004.0,21848997.0,3509.0,516.0,993.0,993.0,1994.0,-21848004.0,0.0,0.0,0.0,1.0,0.0,0.0,0.0,0.15923047840885393,10.076520057568942,0.07269217492578157,-0.06576911064713421,21847272.0,21847326.0,54.0,438.4607376475653,9.91825610299108,9.963276309500895,0.01396069852874515,275.0,0.029883350268777493,1.0,9.796135954283791,10.422673271501232,-0.08653830348307236,-0.15230741413020657,21847339.0,21847368.0,29.0,40.71696406889043,0.6299798296623019,0.649809891772328,0.10458933448162003,0.24756263670402026
74,21938.17734,3.5078839,1,75,2,1,2,2,1,2,42.5,n/a,n/a,21849004.0,21852513.0,0.0,0.0,0.0,21850514.0,21849520.0,21851514.0,21849520.0,21849914.0,21851520.0,21852513.0,3509.0,516.0,394.0,993.0,1994.0,-21851520.0,0.0,0.0,0.0,0.0,0.0,0.0,1.0,-0.11769209273697762,-9.7372899079153,0.39807619602213284,1.1353825416979098,21850490.0,21850555.0,65.0,411.1236364169366,9.647812330946188,10.08560263473668,-3.0650959411793326,576.0,-3.0522378430205452,0.0,0.0,0.0,0.0,0.0,0.0,0.0,0.0,0.0,0.0,0.0,0.0,0.0
75,21941.69354,3.5078149,1,76,2,2,1,1,3,2,42.5,n/a,n/a,21852520.0,21856030.0,0.0,0.0,0.0,21854030.0,21853037.0,21855029.0,21853037.0,21853830.0,21855036.0,21856030.0,3510.0,517.0,793.0,994.0,1992.0,-21855036.0,0.0,0.0,0.0,1.0,0.0,0.0,0.0,-0.044999917811196055,9.086521865722597,0.28730716756379865,-0.32192248895702763,21854013.0,21854096.0,83.0,437.49104365366003,9.151822269774293,9.158500382542245,0.06661848330479021,183.0,0.06619104248634806,1.0,0.26653797472786445,0.1488458819908829,0.44999917811197626,0.5573066744309868,21855073.0,21855106.0,33.0,40.405140729871626,0.1592680993139076,0.319906253116629,-2.402315606206866,2.5175696006130286
76,21945.20968,3.5078426,1,77,2,2,1,2,5,2,42.5,n/a,n/a,21856036.0,21859545.0,0.0,0.0,0.0,21857596.0,21856553.0,21858545.0,21856553.0,21857746.0,21858552.0,21859545.0,3509.0,517.0,1193.0,993.0,1992.0,-21858552.0,0.0,0.0,0.0,0.0,0.0,1.0,0.0,0.16615354268749735,8.511907530595,0.294230231842446,0.24576878189192627,21857581.0,21857635.0,54.0,414.2979039206287,8.345894687737516,8.90841150901062,0.005806653941340841,-165.0,0.020595610554217325,0.0,0.0,0.0,0.0,0.0,0.0,0.0,0.0,0.0,0.0,0.0,0.0,0.0
77,21948.72587,3.507839,1,78,2,2,2,1,5,1,42.5,n/a,n/a,21859552.0,21863061.0,0.0,0.0,0.0,21861012.0,21860069.0,21862062.0,21860069.0,21861262.0,21862069.0,21863061.0,3509.0,517.0,1193.0,992.0,1993.0,-21862069.0,0.0,0.0,0.0,0.0,0.0,1.0,0.0,-0.020769192835938154,8.792291633880152,0.38769159960416577,0.8619215026913999,21860997.0,21861051.0,54.0,431.5473143378188,8.825810735359093,9.112465440937788,-0.053758052309309606,-265.0,-0.06462249345781004,0.0,0.0,0.0,0.0,0.0,0.0,0.0,0.0,0.0,0.0,0.0,0.0,0.0
78,21952.24204,3.5078383,1,79,2,1,1,2,4,1,42.5,n/a,n/a,21863068.0,21866578.0,0.0,0.0,0.0,21864585.0,21863585.0,21865578.0,21863585.0,21864579.0,21865585.0,21866578.0,3510.0,517.0,994.0,993.0,1993.0,-21865585.0,0.0,0.0,0.0,0.0,0.0,1.0,0.0,0.373845471046871,-10.606134474885348,-0.03807685353255263,-0.5261528851770815,21864567.0,21864612.0,45.0,506.05566271409054,10.99082243627562,10.97976387086681,3.097170446411571,-12.0,3.091760206417202,0.0,0.0,0.0,0.0,0.0,0.0,0.0,0.0,0.0,0.0,0.0,0.0,0.0
79,21955.7582,3.5078393,1,80,2,1,1,1,2,1,42.5,n/a,n/a,21866585.0,21870094.0,0.0,0.0,0.0,21867894.0,21867101.0,21869094.0,21867101.0,21867694.0,21869101.0,21870094.0,3509.0,516.0,593.0,993.0,1993.0,-21869101.0,0.0,0.0,0.0,1.0,0.0,0.0,0.0,0.24923031403124998,-10.453827060755142,0.1765381391054684,0.31846095681770786,21867872.0,21867945.0,73.0,504.4885387237907,10.703998283546047,11.233661138690087,-3.1283334047971354,178.0,3.0965891306847695,1.0,-1.699612280407542,-1.484997287769521,0.46384530666926704,0.4292299852760381,21868848.0,21868867.0,19.0,17.92176484462761,0.21738862789983832,0.21928198208706576,0.15991312315821812,-0.20668321848424076
80,21959.27438,3.5078839,1,81,2,1,1,2,3,1,42.5,n/a,n/a,21870101.0,21873610.0,0.0,0.0,0.0,21871427.0,21870617.0,21872611.0,21870617.0,21871410.0,21872617.0,21873610.0,3509.0,516.0,793.0,993.0,1994.0,-21872617.0,0.0,0.0,0.0,1.0,0.0,0.0,0.0,0.18346120338411182,-9.97267409338926,0.01384612855729079,-0.03461532139322895,21871414.0,21871468.0,54.0,525.030739185982,10.156250916479824,11.29860316090385,3.1368210469953484,4.0,3.0983812982767214,1.0,-3.9357620424101323,-3.613839553453101,-0.048461449950519736,0.03461532139322895,21872334.0,21872353.0,19.0,28.410114847115125,0.33246930509927014,0.31999987782322553,-0.2525542757780555,0.2738420362271401
81,21962.79057,3.5078231,1,82,2,2,2,1,4,2,42.5,n/a,n/a,21873617.0,21877127.0,0.0,0.0,0.0,21875309.0,21874134.0,21876126.0,21874134.0,21875126.0,21876133.0,21877127.0,3510.0,517.0,992.0,994.0,1992.0,-21876133.0,0.0,0.0,0.0,1.0,0.0,0.0,0.0,0.1626920105481776,10.076520057568942,-0.06576911064713421,0.8099985206015565,21875290.0,21875376.0,86.0,465.1569543439469,9.952434651372421,9.94992290078748,-0.08810927397065488,164.0,-0.09302216193353685,1.0,0.6126911886601539,0.28038410328515523,0.6888448957252552,0.6196142529387973,21876177.0,21876204.0,27.0,26.893478621505853,0.33944201403340274,0.3450784705267162,2.9361972644000263,0.2328138131067399
82,21966.30671,3.5078817,1,83,2,1,2,1,1,1,42.5,n/a,n/a,21877133.0,21880643.0,0.0,0.0,0.0,21878426.0,21877650.0,21879643.0,21877650.0,21878043.0,21879650.0,21880643.0,3510.0,517.0,393.0,993.0,1993.0,-21879650.0,0.0,0.0,0.0,1.0,0.0,0.0,0.0,0.36692240676822757,-9.131521783533794,-0.02769225711458158,0.1869227355234355,21878400.0,21878469.0,69.0,484.90321791800733,9.500868467216419,10.198876805264765,-3.1190017452714263,357.0,-3.0872614043844773,0.0,0.0,0.0,0.0,0.0,0.0,0.0,0.0,0.0,0.0,0.0,0.0,0.0
83,21969.83961,3.5077727,1,84,2,1,1,1,5,2,42.5,n/a,n/a,21880668.0,21884175.0,0.0,0.0,0.0,21882324.0,21881184.0,21883176.0,21881184.0,21882376.0,21883182.0,21884175.0,3507.0,516.0,1192.0,993.0,1992.0,-21883182.0,0.0,0.0,0.0,0.0,0.0,1.0,0.0,0.38769159960416577,-9.283829197664005,-0.3461532139322894,-0.8584599705520762,21882309.0,21882377.0,68.0,474.65959253206233,9.685079903896973,10.167958266065705,3.0886714622250477,-67.0,3.0867550867805513,0.0,0.0,0.0,0.0,0.0,0.0,0.0,0.0,0.0,0.0,0.0,0.0,0.0
84,21973.35573,3.5078722,1,85,2,2,1,2,3,1,42.5,n/a,n/a,21884182.0,21887691.0,0.0,0.0,0.0,21885698.0,21884699.0,21886692.0,21884699.0,21885491.0,21886698.0,21887692.0,3509.0,517.0,792.0,994.0,1993.0,-21886698.0,0.0,0.0,0.0,1.0,0.0,0.0,0.0,0.34961474607161314,9.713059182940038,0.11423056059765394,-0.0692306427864579,21885684.0,21885770.0,86.0,454.0379988067869,9.365241573791325,9.412828195448075,0.019590838943693283,193.0,0.040831176775087984,1.0,0.34961474607161314,9.713059182940038,0.11423056059765394,-0.0692306427864579,21885684.0,21885770.0,86.0,454.0379988067869,9.365241573791325,9.412828195448075,0.019590838943693283,0.040831176775087984
85,21976.87193,3.5078119,1,86,2,2,2,1,5,2,42.5,n/a,n/a,21887698.0,21891208.0,0.0,0.0,0.0,21889615.0,21888215.0,21890208.0,21888215.0,21889408.0,21890214.0,21891208.0,3510.0,517.0,1193.0,994.0,1993.0,-21890214.0,0.0,0.0,0.0,1.0,0.0,0.0,0.0,0.1211536248763013,9.11075259069786,0.17999967124479208,1.6407662340390512,21889597.0,21889676.0,79.0,463.8987621596085,9.10750945743554,9.102881833313011,-0.16108721511784904,189.0,-0.1650236461574636,0.0,0.0,0.0,0.0,0.0,0.0,0.0,0.0,0.0,0.0,0.0,0.0,0.0
86,21980.3881,3.5078217,1,87,2,2,1,1,4,2,42.5,n/a,n/a,21891214.0,21894724.0,0.0,0.0,0.0,21892874.0,21891731.0,21893723.0,21891731.0,21892724.0,21893731.0,21894724.0,3510.0,517.0,993.0,993.0,1992.0,-21893731.0,0.0,0.0,0.0,1.0,0.0,0.0,0.0,0.5296144173164012,10.381134885829363,0.16615354268749735,-0.12807668915494866,21892852.0,21892934.0,82.0,476.63711031423014,9.855913299682577,9.947620106369415,0.02985760365354782,128.0,0.05117479215399847,1.0,1.311920680803376,0.9830751275677012,0.3011532961210934,0.2976917639817697,21893828.0,21893854.0,26.0,27.40835037208467,0.3288637713212398,0.32838977262406943,3.1310667265580654,2.819842099193151
87,21983.90425,3.5078626,1,88,2,2,2,2,3,2,42.5,n/a,n/a,21894730.0,21898240.0,0.0,0.0,0.0,21896340.0,21895247.0,21897240.0,21895248.0,21896040.0,21897247.0,21898240.0,3510.0,518.0,792.0,993.0,1993.0,-21897247.0,0.0,0.0,0.0,1.0,0.0,0.0,0.0,0.3911531317434855,9.546905640252541,0.2976917639817697,1.2184593130416583,21896325.0,21896397.0,72.0,398.09166392078896,9.201935496213371,9.73274135459637,-0.10023011372876507,285.0,-0.10225207739816593,0.0,0.0,0.0,0.0,0.0,0.0,0.0,0.0,0.0,0.0,0.0,0.0,0.0
88,21987.42044,3.5078641,1,89,2,2,1,2,3,1,42.5,n/a,n/a,21898246.0,21901756.0,0.0,0.0,0.0,21899780.0,21898763.0,21900756.0,21898763.0,21899557.0,21900763.0,21901756.0,3510.0,517.0,794.0,993.0,1993.0,-21900763.0,0.0,0.0,0.0,1.0,0.0,0.0,0.0,0.49153756378385255,10.633826731999934,-0.14538434985156315,0.3773070031861947,21899763.0,21899822.0,59.0,499.0538903841712,10.1557489050416,10.173270409406381,-0.05149028334257225,206.0,-0.06878625800609513,1.0,10.623442135581966,10.80344180682675,0.3773070031861947,0.3599993424895802,21899824.0,21899846.0,22.0,82.26552018609071,0.18082985585079564,0.5810633059225134,0.09585914711001652,-0.10144695529948063
89,21990.93662,3.4995078,1,90,2,1,2,2,2,2,42.5,n/a,n/a,21901763.0,21905264.0,0.0,0.0,0.0,21903139.0,21902272.0,21904264.0,21902272.0,21902863.0,21904271.0,21905264.0,3501.0,509.0,591.0,993.0,1992.0,-21904271.0,0.0,0.0,0.0,1.0,0.0,0.0,0.0,0.5365374815950487,-8.574215109102811,0.10730749631901051,0.27346103900650787,21903119.0,21903178.0,59.0,476.684592823744,9.112267542640272,9.86095185215175,-3.123357592950328,256.0,-3.0839911839233385,1.0,-5.195759741123665,-4.697299113061169,0.05884604636849078,-0.010384596417967108,21903999.0,21904036.0,37.0,29.73807792157708,0.5032453473496641,0.5225537906124333,0.13800602365751966,2.8596533382269116
90,21994.44461,3.5076486,1,91,2,1,1,2,2,2,42.5,n/a,n/a,21905271.0,21908780.0,0.0,0.0,0.0,21906854.0,21905787.0,21907781.0,21905787.0,21906380.0,21907787.0,21908780.0,3509.0,516.0,593.0,993.0,1994.0,-21907787.0,0.0,0.0,0.0,1.0,0.0,0.0,0.0,0.0553845142291671,-10.543826896377537,0.12807668915494866,-0.4430761138333289,21906840.0,21906881.0,41.0,517.1233080922672,10.61458892520557,10.604752709352972,3.087758371405606,460.0,3.0759364228597676,1.0,-0.7269217492578078,-0.6507680421927026,0.4846144995052052,0.5157682887591105,21907873.0,21907893.0,20.0,26.89347862150442,0.08227967965806991,0.1673034079140541,-0.3883187181724499,-0.42662749312687803
91,21997.96059,3.5078572,1,92,2,1,2,1,5,2,42.5,n/a,n/a,21908787.0,21912296.0,0.0,0.0,0.0,21910379.0,21909303.0,21911296.0,21909303.0,21910496.0,21911303.0,21912297.0,3509.0,516.0,1193.0,994.0,1993.0,-21911303.0,0.0,0.0,0.0,0.0,0.0,1.0,0.0,-0.1730766069661447,-10.253058196674415,0.4603837745299434,1.0973056881653571,21910355.0,21910426.0,71.0,505.49695657594896,10.100084077517705,10.68747585543938,-3.078489732190383,-141.0,-3.063131574737445,0.0,0.0,0.0,0.0,0.0,0.0,0.0,0.0,0.0,0.0,0.0,0.0,0.0
92,22001.47676,3.6994927,1,93,2,2,2,1,2,2,42.5,n/a,n/a,21912303.0,21916004.0,0.0,0.0,0.0,21913903.0,21913013.0,21915004.0,21913013.0,21913603.0,21915011.0,21916004.0,3701.0,710.0,590.0,993.0,1991.0,-21915011.0,0.0,0.0,0.0,1.0,0.0,0.0,0.0,-0.15923047840885393,10.370750289411388,0.5192298208984342,0.498460628062496,21913878.0,21913956.0,78.0,496.7298619928361,10.530001250239016,10.555866631580383,0.0019723840300462482,275.0,0.01770887340322417,0.0,0.0,0.0,0.0,0.0,0.0,0.0,0.0,0.0,0.0,0.0,0.0,0.0
93,22005.18458,3.5078535,1,94,2,1,1,1,3,2,42.5,n/a,n/a,21916011.0,21919520.0,0.0,0.0,0.0,21917694.0,21916527.0,21918520.0,21916527.0,21917320.0,21918527.0,21919520.0,3509.0,516.0,793.0,993.0,1993.0,-21918527.0,0.0,0.0,0.0,1.0,0.0,0.0,0.0,0.18346120338411182,-9.931135707717383,0.2596149104492171,-0.27346103900650787,21917669.0,21917742.0,73.0,487.05887979140533,10.128634687950399,10.841998312886943,3.0889377425753253,349.0,3.0789746880161295,1.0,-2.4507647546406077,-2.4646108831979023,0.03807685353255263,-0.020769192835938154,21918469.0,21918488.0,19.0,30.772179227258484,0.06045305988308366,0.19660771228146173,1.8018869939908384,-2.6858188976130895
94,22008.70087,3.5077455,1,95,2,1,1,1,3,1,42.5,n/a,n/a,21919527.0,21923036.0,0.0,0.0,0.0,21921170.0,21920043.0,21922037.0,21920043.0,21920836.0,21922043.0,21923037.0,3509.0,516.0,793.0,994.0,1994.0,-21922043.0,0.0,0.0,0.0,1.0,0.0,0.0,0.0,0.2388457176132789,-8.90998372661713,0.07615370706510526,-0.20769192835937367,21921158.0,21921209.0,51.0,535.4445590375078,9.153231590229037,10.104336236537028,3.110577252577973,322.0,3.104242872971504,1.0,-2.696533536532534,-2.3261495976249864,-0.01384612855729079,-0.006923064278647363,21922160.0,21922186.0,26.0,26.1912432317951,0.37044863479256607,0.36715092735155935,-0.018689412446899412,-0.14189705460416394
95,22012.21703,3.5077926,1,96,2,2,2,2,4,2,42.5,n/a,n/a,21923043.0,21926553.0,0.0,0.0,0.0,21924819.0,21923560.0,21925552.0,21923560.0,21924552.0,21925560.0,21926553.0,3510.0,517.0,992.0,993.0,1992.0,-21925560.0,0.0,0.0,0.0,1.0,0.0,0.0,0.0,0.3426916817929658,10.034981671897073,-0.0,1.0938441560260355,21924791.0,21924885.0,94.0,468.898498498071,9.75381875420825,10.149446579765169,-0.11238162767912836,239.0,-0.11107151816348727,1.0,0.3426916817929658,10.034981671897073,-0.0,1.0938441560260355,21924791.0,21924885.0,94.0,468.898498498071,9.75381875420825,10.149446579765169,-0.11238162767912836,-0.11107151816348727
96,22015.73315,3.5078271,1,97,2,2,1,2,4,1,42.5,n/a,n/a,21926559.0,21930069.0,0.0,0.0,0.0,21928302.0,21927076.0,21929068.0,21927076.0,21928069.0,21929075.0,21930069.0,3510.0,517.0,993.0,994.0,1992.0,-21929075.0,0.0,0.0,0.0,1.0,0.0,0.0,0.0,0.1869227355234355,10.256519728813734,0.2284611211953118,0.18346120338411182,21928286.0,21928369.0,83.0,453.46107724989395,10.069697542621826,10.075078739457647,0.00446885990379758,217.0,-0.032989058981343376,0.0,0.0,0.0,0.0,0.0,0.0,0.0,0.0,0.0,0.0,0.0,0.0,0.0
97,22019.24931,3.50798,1,98,2,2,2,1,5,1,42.5,n/a,n/a,21930075.0,21933585.0,0.0,0.0,0.0,21931768.0,21930592.0,21932585.0,21930592.0,21931785.0,21932592.0,21933585.0,3510.0,517.0,1193.0,993.0,1993.0,-21932592.0,0.0,0.0,0.0,0.0,0.0,1.0,0.0,0.19730733194140657,9.837674339955667,0.21115346049869735,1.2703822951315018,21931745.0,21931833.0,88.0,433.73870984051695,9.698383461862466,9.747046343850675,-0.10943535429546114,-40.0,-0.11567718057457484,0.0,0.0,0.0,0.0,0.0,0.0,0.0,0.0,0.0,0.0,0.0,0.0,0.0
98,22022.7656,3.6493786,1,99,2,1,1,1,5,1,42.5,n/a,n/a,21933592.0,21937242.0,0.0,0.0,0.0,21935558.0,21934251.0,21936243.0,21934251.0,21935441.0,21936249.0,21937242.0,3650.0,659.0,1190.0,993.0,1992.0,-21936249.0,0.0,0.0,0.0,1.0,0.0,0.0,0.0,0.20423039622005,-8.664214944725202,0.22499958905598813,-0.17999967124479208,21935540.0,21935602.0,62.0,515.0569709522542,8.877688165630607,9.59731556513495,3.095956913343878,99.0,3.084213511143821,1.0,0.5746143351276013,0.8238446491588473,0.4742299030872381,0.45346071025129997,21936845.0,21936868.0,23.0,37.716759871806445,0.25009419985911285,0.2418122395323234,0.08314123188844515,0.2310906671958859
99,22026.42329,3.50782,1,100,2,2,2,1,5,2,42.5,n/a,n/a,21937249.0,21940759.0,0.0,0.0,0.0,21939425.0,21937766.0,21939759.0,21937766.0,21938959.0,21939765.0,21940759.0,3510.0,517.0,1193.0,994.0,1993.0,-21939765.0,0.0,0.0,0.0,1.0,0.0,0.0,0.0,0.11769209273697762,8.290369473678332,0.30461482826041314,1.7480737303580616,21939404.0,21939488.0,84.0,353.58966722465294,8.299170390767706,8.318272041780622,-0.17481716856361745,445.0,-0.17821580445383542,1.0,1.5749971233919169,1.654612362596342,1.0834595596080663,1.1076902845833263,21940423.0,21940457.0,34.0,39.01375196606638,0.08322087686635182,0.32957349115628204,-0.295440837143721,-2.843093722003619
100,22109.57012,3.5244024,2,1,2,1,2,2,1,2,42.5,n/a,n/a,22020398.0,22023922.0,0.0,0.0,0.0,22021870.0,22020920.0,22022922.0,22020921.0,22021320.0,22022928.0,22023924.0,3524.0,523.0,399.0,996.0,2002.0,-22022928.0,0.0,0.0,0.0,0.0,0.0,0.0,1.0,0.46384530666926704,-8.948060580149683,-0.6196142529387973,-0.04153838567187631,22021857.0,22021909.0,52.0,520.230457442141,9.429641781671963,10.805633185828134,-3.0802500722548194,537.0,-3.0672039916351093,0.0,0.0,0.0,0.0,0.0,0.0,0.0,0.0,0.0,0.0,0.0,0.0,0.0
101,22113.11129,3.5077385,2,2,2,2,2,1,3,2,42.5,n/a,n/a,22023938.0,22027446.0,0.0,0.0,0.0,22025611.0,22024455.0,22026447.0,22024455.0,22025245.0,22026453.0,22027447.0,3508.0,517.0,790.0,994.0,1992.0,-22026453.0,0.0,0.0,0.0,1.0,0.0,0.0,0.0,0.36692240676822757,8.761137844626242,0.09346136776171972,0.65769110647135,22025595.0,22025682.0,87.0,325.31445568556,8.413156840046318,8.77538815066552,-0.0671155390564229,350.0,-0.06948070047477209,1.0,0.36692240676822757,8.761137844626242,0.09346136776171972,0.65769110647135,22025595.0,22025682.0,87.0,325.31445568556,8.413156840046318,8.77538815066552,-0.0671155390564229,-0.06948070047477209
102,22116.62753,3.5076805,2,3,2,1,1,1,3,1,42.5,n/a,n/a,22027453.0,22030962.0,0.0,0.0,0.0,22029213.0,22027969.0,22029962.0,22027969.0,22028763.0,22029969.0,22030962.0,3509.0,516.0,794.0,993.0,1993.0,-22029969.0,0.0,0.0,0.0,1.0,0.0,0.0,0.0,0.33230708537499865,-9.356521372589782,-0.39807619602213284,-0.29076869970312236,22029191.0,22029246.0,55.0,518.2844106431297,9.689422675610475,10.817551008627703,-3.130517722341521,428.0,-3.0653606925674546,0.0,0.0,0.0,0.0,0.0,0.0,0.0,0.0,0.0,0.0,0.0,0.0,0.0
103,22120.14356,3.5078121,2,4,2,1,1,2,3,2,42.5,n/a,n/a,22030969.0,22034478.0,0.0,0.0,0.0,22032619.0,22031485.0,22033478.0,22031486.0,22032278.0,22033485.0,22034478.0,3509.0,517.0,792.0,993.0,1993.0,-22033485.0,0.0,0.0,0.0,1.0,0.0,0.0,0.0,0.31499942467838415,-9.619597815178322,-0.22153805691666445,-0.2976917639817697,22032597.0,22032659.0,62.0,496.4751737393873,9.934889113888904,10.392626375611162,3.133927298499639,319.0,3.10227958579364,1.0,-1.9557656587174352,-1.8276889695624867,0.2561533783098934,0.20423039622005,22033712.0,22033739.0,27.0,35.78777098862064,0.13820142681606273,0.32743971676784694,0.3851575063634699,0.23472261248520065
104,22123.66813,3.657735,2,5,2,2,1,2,1,1,42.5,n/a,n/a,22034496.0,22038153.0,0.0,0.0,0.0,22036054.0,22035160.0,22037154.0,22035161.0,22035553.0,22037160.0,22038156.0,3657.0,665.0,392.0,996.0,1994.0,-22037160.0,0.0,0.0,0.0,1.0,0.0,0.0,0.0,0.24923031403124998,9.803059018562438,-0.21807652477734077,0.03461532139322895,22036041.0,22036122.0,81.0,444.8162332745456,9.557169878402558,9.878978032416223,-0.026443110294730864,488.0,-0.03679964874655751,0.0,0.0,0.0,0.0,0.0,0.0,0.0,0.0,0.0,0.0,0.0,0.0,0.0
105,22127.34265,3.6993455,2,6,2,1,1,2,2,1,42.5,n/a,n/a,22038169.0,22041868.0,0.0,0.0,0.0,22039759.0,22038876.0,22040869.0,22038876.0,22039470.0,22040876.0,22041869.0,3699.0,707.0,594.0,993.0,1993.0,-22040876.0,0.0,0.0,0.0,1.0,0.0,0.0,0.0,0.2561533783098934,-10.062673929011655,-0.12807668915494866,0.05192298208984342,22039735.0,22039814.0,79.0,475.1064075913114,10.320397128016593,10.907593163727208,-3.124150611770677,265.0,-3.084756285850784,1.0,-5.226913530377571,-5.289221108885381,-0.09346136776171972,-0.020769192835938154,22040638.0,22040671.0,33.0,51.89092096786714,0.09574124834650631,0.41941715267467455,-2.279422598922549,2.848554832761278
106,22131.05033,3.5078527,2,7,2,2,2,1,2,2,42.5,n/a,n/a,22041875.0,22045385.0,0.0,0.0,0.0,22043269.0,22042392.0,22044385.0,22042392.0,22042986.0,22044392.0,22045385.0,3510.0,517.0,594.0,993.0,1993.0,-22044392.0,0.0,0.0,0.0,1.0,0.0,0.0,0.0,0.2388457176132789,10.969595349514256,-0.020769192835938154,-0.0034615321393236813,22043249.0,22043338.0,89.0,453.25991748354835,10.730763589682784,10.80447267533799,-0.0016129018271759375,263.0,0.028838156871118882,0.0,0.0,0.0,0.0,0.0,0.0,0.0,0.0,0.0,0.0,0.0,0.0,0.0
107,22134.56674,3.657599131,2,8,2,1,1,1,1,2,42.5,n/a,n/a,22045392.0,22049051.0,0.0,0.0,0.0,22046901.0,22046058.0,22048051.0,22046058.0,22046451.0,22048058.0,22049051.0,3659.0,666.0,393.0,993.0,1993.0,-22048058.0,0.0,0.0,0.0,1.0,0.0,0.0,0.0,0.048461449950519736,-11.367671545536384,-0.0553845142291671,-0.38769159960416577,22046883.0,22046932.0,49.0,472.50230690816835,11.420968460232924,11.432518906186521,3.1124923200758814,432.0,-3.0940383538153076,1.0,-0.5676912708489539,-0.5642297387096302,-0.5365374815950487,-0.5330759494557249,22048985.0,22049004.0,19.0,18.470516949958945,0.004895345698021904,0.08999983562239453,-0.7853981633974483,1.1760052070951317
108,22138.23266,3.5078653,2,9,2,1,2,1,1,1,42.5,n/a,n/a,22049058.0,22052567.0,0.0,0.0,0.0,22050484.0,22049574.0,22051568.0,22049574.0,22049967.0,22051575.0,22052568.0,3509.0,516.0,393.0,993.0,1994.0,-22051575.0,0.0,0.0,0.0,1.0,0.0,0.0,0.0,0.07615370706510526,-9.865366597070249,0.19384579980208289,0.5261528851770815,22050453.0,22050524.0,71.0,463.87436712950483,9.947072632514852,10.174441676483006,-3.108178910540601,486.0,-3.094284653469556,0.0,0.0,0.0,0.0,0.0,0.0,0.0,0.0,0.0,0.0,0.0,0.0,0.0
109,22141.74897,3.5077351,2,10,2,1,1,2,1,2,42.5,n/a,n/a,22052574.0,22056083.0,0.0,0.0,0.0,22054001.0,22053091.0,22055083.0,22053091.0,22053484.0,22055090.0,22056084.0,3509.0,517.0,393.0,994.0,1992.0,-22055090.0,0.0,0.0,0.0,1.0,0.0,0.0,0.0,0.31499942467838415,-9.723443779358009,-0.15230741413020657,0.08653830348307236,22053982.0,22054047.0,65.0,525.8874467427888,10.04128424244064,10.766708300120579,-3.1178040384690613,498.0,-3.0827235549343643,1.0,0.31499942467838415,-9.723443779358009,-0.15230741413020657,0.08653830348307236,22053982.0,22054047.0,65.0,525.8874467427888,10.04128424244064,10.766708300120579,-3.1178040384690613,-3.0827235549343643
110,22145.26504,3.5161802,2,11,2,1,2,1,2,2,42.5,n/a,n/a,22056090.0,22059608.0,0.0,0.0,0.0,22057583.0,22056616.0,22058608.0,22056616.0,22057207.0,22058615.0,22059608.0,3518.0,526.0,591.0,993.0,1992.0,-22058615.0,0.0,0.0,0.0,1.0,0.0,0.0,0.0,0.2284611211953118,-8.7992146981588,0.3461532139322894,0.6853833635859315,22057561.0,22057620.0,59.0,483.49129056217237,9.034047143655213,9.798658389259819,-3.1040336376914506,354.0,-3.0779618565275086,1.0,-3.3888399643971128,-3.2884555323567497,0.3634608746289039,0.3911531317434855,22058474.0,22058511.0,37.0,64.51732166701704,0.10413402566004247,0.45704023393355275,-0.2691674927856879,-0.3720677588581185
111,22148.78954,3.5078411,2,12,2,1,1,2,3,1,42.5,n/a,n/a,22059615.0,22063124.0,0.0,0.0,0.0,22061098.0,22060131.0,22062124.0,22060131.0,22060924.0,22062131.0,22063124.0,3509.0,516.0,793.0,993.0,1993.0,-22062131.0,0.0,0.0,0.0,1.0,0.0,0.0,0.0,-0.044999917811196055,-10.180366021748632,0.16615354268749735,-0.024230724975261835,22061078.0,22061147.0,69.0,427.1857289403019,10.137154049841476,10.582022077710588,3.1228107094111492,154.0,3.0902130849677127,1.0,-10.183827553887957,-10.464211657173108,-0.031153789253905263,-0.10384596417968683,22061149.0,22061171.0,22.0,28.93826146343393,0.2896539274210844,0.28880465244805964,2.8879185574511452,2.8995209590186715
112,22152.30571,3.5078467,2,13,2,1,1,1,1,1,42.5,n/a,n/a,22063131.0,22066640.0,0.0,0.0,0.0,22064690.0,22063648.0,22065640.0,22063648.0,22064041.0,22065647.0,22066641.0,3509.0,517.0,393.0,994.0,1992.0,-22065647.0,0.0,0.0,0.0,0.0,0.0,0.0,1.0,0.14192281771223947,-9.536521043834574,0.13153822129426843,0.08999983562239604,22064676.0,22064733.0,57.0,431.7982893837977,9.678532999303016,10.466824369817418,3.137300834447782,635.0,3.107522453880943,0.0,0.0,0.0,0.0,0.0,0.0,0.0,0.0,0.0,0.0,0.0,0.0,0.0
113,22155.82189,3.5078655,2,14,2,1,2,1,1,1,42.5,n/a,n/a,22066647.0,22070157.0,0.0,0.0,0.0,22068057.0,22067163.0,22069156.0,22067164.0,22067557.0,22069163.0,22070157.0,3510.0,517.0,393.0,994.0,1993.0,-22069163.0,0.0,0.0,0.0,1.0,0.0,0.0,0.0,0.11769209273697762,-10.138827636076757,0.08999983562239604,0.30461482826041314,22068041.0,22068106.0,65.0,459.7069480031582,10.258764864378673,10.66669710531074,-3.1206709682754474,484.0,-3.1013415893996066,1.0,0.33230708537499865,0.4776914352265578,0.28384563542447894,0.20423039622005,22069174.0,22069193.0,19.0,23.73808042670006,0.16575643425019437,0.1671959439860958,0.5010133868036087,-2.668686049926851
114,22159.33807,3.5078393,2,15,2,2,2,2,2,1,42.5,n/a,n/a,22070163.0,22073672.0,0.0,0.0,0.0,22071506.0,22070680.0,22072673.0,22070680.0,22071273.0,22072679.0,22073672.0,3509.0,517.0,593.0,993.0,1993.0,-22072679.0,0.0,0.0,0.0,1.0,0.0,0.0,0.0,0.0692306427864579,9.408444354679625,0.1626920105481776,-0.01384612855729079,22071492.0,22071542.0,50.0,415.99278428032125,9.340882103472463,9.754060758402968,0.018900640057100033,219.0,-0.024489245940945426,1.0,9.33229064761452,9.806520550701759,0.09692289990103947,0.15576894626953025,22071555.0,22071579.0,24.0,41.365751610816666,0.47786698793213767,0.4806421825122973,-0.12345652219194328,-0.20304521725346797
115,22162.85437,3.5078232,2,16,2,1,2,1,1,1,42.5,n/a,n/a,22073680.0,22077189.0,0.0,0.0,0.0,22075022.0,22074196.0,22076189.0,22074196.0,22074589.0,22076195.0,22077190.0,3509.0,516.0,393.0,995.0,1993.0,-22076195.0,0.0,0.0,0.0,1.0,0.0,0.0,0.0,0.20769192835937367,-9.899981918463478,0.28384563542447894,0.5053836923411433,22075005.0,22075052.0,47.0,432.9030038065008,10.110101369640617,10.160987833230676,-3.1196783540602935,416.0,-3.0809163723244426,1.0,0.23538418547395523,0.3807685353255184,0.3911531317434855,0.3115378925390605,22076181.0,22076204.0,23.0,24.258181896222627,0.1657564342501959,0.19098123275276152,0.5010133868035765,-0.8110335719191317
116,22166.37055,3.5077138,2,17,2,2,1,2,3,2,42.5,n/a,n/a,22077196.0,22080705.0,0.0,0.0,0.0,22078689.0,22077712.0,22079705.0,22077712.0,22078505.0,22079712.0,22080705.0,3509.0,516.0,793.0,993.0,1993.0,-22079712.0,0.0,0.0,0.0,1.0,0.0,0.0,0.0,-0.010384596417967108,8.020369966811147,0.13153822129426843,-0.7234602171184842,22078675.0,22078733.0,58.0,412.50287756443095,8.07614024051796,8.23928710650742,0.10606597213587045,170.0,0.10945094914136347,1.0,8.009985370393181,8.463446080644477,-0.7199986849791604,-0.7615370706510368,22078735.0,22078757.0,22.0,43.330646392200144,0.4553592573186971,0.4651995271042509,0.09134811833778472,0.22512567616292514
117,22169.88673,3.6410408,2,18,2,2,1,1,2,1,42.5,n/a,n/a,22080712.0,22084354.0,0.0,0.0,0.0,22082338.0,22081361.0,22083354.0,22081362.0,22081955.0,22083361.0,22084354.0,3642.0,650.0,593.0,993.0,1993.0,-22083361.0,0.0,0.0,0.0,1.0,0.0,0.0,0.0,-0.044999917811196055,10.059212396872327,0.24923031403124998,-0.1488458819908829,22082313.0,22082457.0,144.0,213.37771247907182,10.11205078893701,10.567146563060296,0.03937668965872875,358.0,0.04948400469571116,0.0,0.0,0.0,0.0,0.0,0.0,0.0,0.0,0.0,0.0,0.0,0.0,0.0
118,22173.53608,3.5078207,2,19,2,1,1,1,3,2,42.5,n/a,n/a,22084361.0,22087870.0,0.0,0.0,0.0,22085944.0,22084878.0,22086871.0,22084878.0,22085671.0,22086878.0,22087870.0,3509.0,517.0,793.0,992.0,1993.0,-22086878.0,0.0,0.0,0.0,1.0,0.0,0.0,0.0,0.020769192835938154,-11.052672120858,-0.1384612855729158,-0.4049992603007802,22085928.0,22086001.0,73.0,484.05958115914365,11.076648636649795,11.502354621192078,3.117527278543123,257.0,3.099749620967787,1.0,-2.322688065485663,-1.799996712447905,0.39807619602213284,0.1107690284583342,22086799.0,22086829.0,30.0,40.60645896189173,0.596449209131821,0.5903916803470673,0.5025889520978424,0.5082374560638573
119,22177.05238,3.7076649,2,20,2,2,2,1,3,2,42.5,n/a,n/a,22087877.0,22091586.0,0.0,0.0,0.0,22089620.0,22088594.0,22090587.0,22088594.0,22089386.0,22090594.0,22091587.0,3709.0,717.0,792.0,993.0,1993.0,-22090594.0,0.0,0.0,0.0,1.0,0.0,0.0,0.0,0.18346120338411182,10.45728859289446,-0.2561533783098934,0.1384612855729158,22089597.0,22089643.0,46.0,436.7631223778556,10.281403112533054,10.207726675366228,-0.03839083152637116,211.0,-0.057680511488937415,1.0,10.439980932197846,10.377673353690035,0.12461515701562499,0.4361530495546855,22089645.0,22089685.0,40.0,94.13557293512521,0.31770755865604805,0.8286375825947344,-1.7681918866447726,-2.747122870639898
120,22180.76854,3.5077055,2,21,2,1,2,2,5,1,42.5,n/a,n/a,22091594.0,22095103.0,0.0,0.0,0.0,22093220.0,22092110.0,22094103.0,22092110.0,22093302.0,22094110.0,22095103.0,3509.0,516.0,1192.0,993.0,1993.0,-22094110.0,0.0,0.0,0.0,0.0,0.0,1.0,0.0,0.3115378925390605,-10.183827553887957,-0.19730733194140657,0.8030754563229131,22093196.0,22093267.0,71.0,477.13439462424947,10.542934201497687,10.998518195804651,-3.0465631262355206,-106.0,-3.043239295342024,0.0,0.0,0.0,0.0,0.0,0.0,0.0,0.0,0.0,0.0,0.0,0.0,0.0
121,22184.28457,3.5078532,2,22,2,2,1,1,2,1,42.5,n/a,n/a,22095109.0,22098619.0,0.0,0.0,0.0,22096519.0,22095626.0,22097619.0,22095626.0,22096219.0,22097626.0,22098619.0,3510.0,517.0,593.0,993.0,1993.0,-22097626.0,0.0,0.0,0.0,1.0,0.0,0.0,0.0,0.48115296736588153,10.419211739361913,-0.28730716756379865,-0.09692289990103947,22096502.0,22096606.0,104.0,466.35858499843835,9.93988220881016,9.975962667530993,-0.019154745126208517,283.0,-0.03678894951532208,0.0,0.0,0.0,0.0,0.0,0.0,0.0,0.0,0.0,0.0,0.0,0.0,0.0
122,22187.80076,3.5078117,2,23,2,2,1,2,4,2,42.5,n/a,n/a,22098625.0,22102135.0,0.0,0.0,0.0,22100202.0,22099142.0,22101135.0,22099142.0,22100135.0,22101142.0,22102135.0,3510.0,517.0,993.0,993.0,1993.0,-22101142.0,0.0,0.0,0.0,1.0,0.0,0.0,0.0,0.6403834457747355,9.238829279852808,-0.4223069209973947,-0.7338448135364551,22100184.0,22100274.0,90.0,442.4100495068473,8.604087785469314,8.611113458480528,0.036216042072411574,49.0,0.04624467195383428,0.0,0.0,0.0,0.0,0.0,0.0,0.0,0.0,0.0,0.0,0.0,0.0,0.0
123,22191.31692,3.5080103,2,24,2,2,1,2,5,1,42.5,n/a,n/a,22102142.0,22105652.0,0.0,0.0,0.0,22103475.0,22102658.0,22104651.0,22102658.0,22103851.0,22104658.0,22105652.0,3510.0,516.0,1193.0,994.0,1993.0,-22104658.0,0.0,0.0,0.0,0.0,0.0,1.0,0.0,0.33576861751432235,9.879212725627545,-0.3115378925390605,0.10730749631901051,22103458.0,22103537.0,79.0,452.31017760741116,9.552630889155543,9.76929555020037,-0.04386013795509749,-393.0,-0.060982156400330084,0.0,0.0,0.0,0.0,0.0,0.0,0.0,0.0,0.0,0.0,0.0,0.0,0.0
124,22194.83323,3.5077401,2,25,2,2,2,2,1,2,42.5,n/a,n/a,22105658.0,22109168.0,0.0,0.0,0.0,22107184.0,22106174.0,22108167.0,22106174.0,22106568.0,22108174.0,22109168.0,3510.0,516.0,394.0,994.0,1993.0,-22108174.0,0.0,0.0,0.0,0.0,0.0,0.0,1.0,0.2769225711458316,9.910366514881446,-0.14192281771223947,0.22499958905598813,22107163.0,22107254.0,91.0,437.908138406987,9.64042915381286,9.626687668845106,-0.03806999123074687,595.0,-0.053962683890626445,0.0,0.0,0.0,0.0,0.0,0.0,0.0,0.0,0.0,0.0,0.0,0.0,0.0
125,22198.34944,3.5077007,2,26,2,1,1,1,2,1,42.5,n/a,n/a,22109174.0,22112683.0,0.0,0.0,0.0,22110757.0,22109691.0,22111684.0,22109691.0,22110284.0,22111691.0,22112683.0,3509.0,517.0,593.0,992.0,1993.0,-22111691.0,0.0,0.0,0.0,1.0,0.0,0.0,0.0,0.33923014965364207,-9.827289743537696,-0.21115346049869735,-0.048461449950519736,22110738.0,22110806.0,68.0,526.6448101867603,10.167821567521305,10.831457091206394,-3.1255912955428076,454.0,3.09043732259521,1.0,-3.0496098147434707,-2.6342259580247234,-0.40153772816145655,-0.44999917811197626,22111890.0,22111909.0,19.0,46.18620232060184,0.4182012201725953,0.4174556095044909,0.11614162687998836,-0.0996686524911564
126,22201.86547,3.5078397,2,27,2,2,1,1,2,2,42.5,n/a,n/a,22112690.0,22116199.0,0.0,0.0,0.0,22114066.0,22113207.0,22115200.0,22113207.0,22113799.0,22115207.0,22116200.0,3509.0,517.0,592.0,993.0,1993.0,-22115207.0,0.0,0.0,0.0,1.0,0.0,0.0,0.0,0.4569222423906236,9.083060333583278,-0.0553845142291671,-0.05192298208984342,22114048.0,22114088.0,40.0,434.5203415004725,8.626138785721547,8.777957519464637,-0.0004012840876099199,249.0,-0.02602962265051219,1.0,8.802676230298118,9.474213465326763,0.048461449950519736,-0.03461532139322895,22114108.0,22114130.0,22.0,59.565627357954725,0.676656491853007,0.6443007710828684,0.12308595969500405,-0.1836977864770142
127,22205.38169,3.5078037,2,28,2,2,1,1,3,1,42.5,n/a,n/a,22116207.0,22119716.0,0.0,0.0,0.0,22117733.0,22116723.0,22118716.0,22116723.0,22117516.0,22118723.0,22119716.0,3509.0,516.0,793.0,993.0,1993.0,-22118723.0,0.0,0.0,0.0,1.0,0.0,0.0,0.0,0.46730683880859075,9.83075127567702,-0.20423039622005,-0.45346071025129997,22117719.0,22117811.0,92.0,419.1349417716064,9.36676077797199,9.368591811150605,0.026611091901105922,203.0,0.042873120531254326,0.0,0.0,0.0,0.0,0.0,0.0,0.0,0.0,0.0,0.0,0.0,0.0,0.0
128,22208.89782,3.6745131,2,29,2,2,2,2,1,2,42.5,n/a,n/a,22119722.0,22123399.0,0.0,0.0,0.0,22121216.0,22120406.0,22122398.0,22120406.0,22120799.0,22122406.0,22123399.0,3677.0,684.0,393.0,993.0,1992.0,-22122406.0,0.0,0.0,0.0,1.0,0.0,0.0,0.0,0.21115346049869735,9.553828704531188,0.1349997534335921,-0.020769192835938154,22121194.0,22121254.0,60.0,468.70254400229203,9.343973709299458,9.982381723675756,0.016671297125058986,395.0,0.03537732254711037,1.0,9.557290236670509,10.183827553887957,-0.010384596417967108,-0.06576911064713421,22121256.0,22121281.0,25.0,40.97771175070167,0.628980487998188,0.6334698391635779,0.08816861183656659,0.14807935605506972
129,22212.58066,3.5078208,2,30,2,2,2,1,2,1,42.5,n/a,n/a,22123405.0,22126914.0,0.0,0.0,0.0,22124788.0,22123922.0,22125915.0,22123922.0,22124515.0,22125922.0,22126914.0,3509.0,517.0,593.0,992.0,1993.0,-22125922.0,0.0,0.0,0.0,1.0,0.0,0.0,0.0,0.4257684531367144,10.128443039658785,-0.30461482826041314,-0.2561533783098934,22124770.0,22124845.0,75.0,444.48088555285636,9.702795609723651,10.13805470049648,-0.004994607058392574,255.0,0.034833871236903485,0.0,0.0,0.0,0.0,0.0,0.0,0.0,0.0,0.0,0.0,0.0,0.0,0.0
130,22216.09691,3.5077663,2,31,2,2,1,1,1,2,42.5,n/a,n/a,22126922.0,22130430.0,0.0,0.0,0.0,22128332.0,22127438.0,22129431.0,22127438.0,22127831.0,22129438.0,22130431.0,3508.0,516.0,393.0,993.0,1993.0,-22129438.0,0.0,0.0,0.0,1.0,0.0,0.0,0.0,0.6057681243815065,9.373829033286396,0.13153822129426843,-0.3911531317434855,22128312.0,22128402.0,90.0,432.76151162621574,8.78362671980125,8.918188648161085,0.05954264102970284,481.0,0.05825438682758571,0.0,0.0,0.0,0.0,0.0,0.0,0.0,0.0,0.0,0.0,0.0,0.0,0.0
131,22219.61299,3.5078673,2,32,2,2,2,1,2,2,42.5,n/a,n/a,22130438.0,22133947.0,0.0,0.0,0.0,22131814.0,22130954.0,22132947.0,22130954.0,22131547.0,22132954.0,22133947.0,3509.0,516.0,593.0,993.0,1993.0,-22132954.0,0.0,0.0,0.0,1.0,0.0,0.0,0.0,0.5019221602018197,10.277288921649676,0.2526918461705697,0.498460628062496,22131793.0,22131847.0,54.0,454.0185721888102,9.778455788874448,10.247267084433483,-0.02513634770490667,246.0,-0.0540744318567127,1.0,10.277288921649676,10.775749549712168,0.5019221602018197,0.6161527207994736,22131849.0,22131879.0,30.0,49.44729969736413,0.5113820672480688,0.5386771319340117,-0.22527677921405434,-0.38885940479185305
132,22223.12919,3.5078467,2,33,2,2,1,2,2,1,42.5,n/a,n/a,22133954.0,22137463.0,0.0,0.0,0.0,22135330.0,22134470.0,22136464.0,22134470.0,22135063.0,22136470.0,22137463.0,3509.0,516.0,593.0,993.0,1994.0,-22136470.0,0.0,0.0,0.0,1.0,0.0,0.0,0.0,0.5573066744309868,10.748057292597586,0.15576894626953025,-0.11423056059765394,22135322.0,22135374.0,52.0,447.1774666825956,10.19432675047114,10.148077017863198,0.026488368434585505,259.0,0.03377554646683469,1.0,10.754980356876235,10.934980028121027,-0.10730749631901051,-0.15576894626953025,22135376.0,22135418.0,42.0,78.09785565281311,0.18640921055446794,0.674954387091836,0.26299473168091325,0.17526637600307943
133,22226.64535,3.5078259,2,34,2,2,1,1,3,1,42.5,n/a,n/a,22137470.0,22140979.0,0.0,0.0,0.0,22138996.0,22137986.0,22139980.0,22137987.0,22138779.0,22139986.0,22140980.0,3509.0,517.0,792.0,994.0,1994.0,-22139986.0,0.0,0.0,0.0,1.0,0.0,0.0,0.0,0.33230708537499865,10.218442875281186,0.17999967124479208,-0.33230708537499865,22138980.0,22139064.0,84.0,462.11418047335906,9.899400944973506,9.851803249493935,0.051774416635396704,201.0,0.05976681954460544,1.0,0.32192248895702763,0.5157682887591105,0.39807619602213284,0.28730716756379865,22140865.0,22140885.0,20.0,26.311692522979307,0.22326211448992514,0.2504293506554163,0.5191461142465273,-0.7071270228761751
134,22230.16169,3.5076653,2,35,2,2,2,2,2,1,42.5,n/a,n/a,22140986.0,22144496.0,0.0,0.0,0.0,22142386.0,22141503.0,22143495.0,22141503.0,22142096.0,22143503.0,22144496.0,3510.0,517.0,593.0,993.0,1992.0,-22143503.0,0.0,0.0,0.0,1.0,0.0,0.0,0.0,0.27346103900650787,9.221521619156194,0.294230231842446,0.22153805691666445,22142366.0,22142439.0,73.0,499.93447474619836,8.948355843300163,9.426108585849992,0.008123612397067383,270.0,0.03930352724231697,1.0,9.231906215574162,9.446521208212182,0.21115346049869735,0.26653797472786445,22142443.0,22142464.0,21.0,32.31278397926328,0.22164620339951377,0.22550493778550385,-0.2525542757780612,0.31204212156253114
135,22233.67769,3.5078435,2,36,2,2,1,1,1,1,42.5,n/a,n/a,22144502.0,22148012.0,0.0,0.0,0.0,22145885.0,22145019.0,22147011.0,22145019.0,22145412.0,22147018.0,22148012.0,3510.0,517.0,393.0,994.0,1992.0,-22147018.0,0.0,0.0,0.0,1.0,0.0,0.0,0.0,0.4223069209973947,9.356521372589782,0.07615370706510526,0.24576878189192627,22145865.0,22145913.0,48.0,384.34656033409647,8.935824368274636,8.92071218611165,-0.01898260918800186,453.0,-0.04036641023852523,1.0,9.356521372589782,9.432675079654887,0.2561533783098934,0.31499942467838415,22145915.0,22145957.0,42.0,89.78693626946831,0.09624055420123279,0.8203904197974395,-0.657888605182213,-0.22553382659079377
136,22237.19395,3.5077908,2,37,2,2,1,1,2,2,42.5,n/a,n/a,22148018.0,22151528.0,0.0,0.0,0.0,22149344.0,22148535.0,22150528.0,22148535.0,22149128.0,22150535.0,22151528.0,3510.0,517.0,593.0,993.0,1993.0,-22150535.0,0.0,0.0,0.0,1.0,0.0,0.0,0.0,0.5538451422916632,9.363444436868429,-0.03807685353255263,0.04153838567187631,22149332.0,22149409.0,77.0,461.0314525223529,8.80995904175048,8.807771089477479,-0.009037082070225412,204.0,-0.019258624962457376,0.0,0.0,0.0,0.0,0.0,0.0,0.0,0.0,0.0,0.0,0.0,0.0,0.0
137,22240.71007,3.5078303,2,38,2,1,1,2,4,1,42.5,n/a,n/a,22151534.0,22155044.0,0.0,0.0,0.0,22153134.0,22152051.0,22154044.0,22152051.0,22153044.0,22154051.0,22155044.0,3510.0,517.0,993.0,993.0,1993.0,-22154051.0,0.0,0.0,0.0,1.0,0.0,0.0,0.0,0.5849989315455684,-8.934214451592391,-0.07269217492578157,-0.07269217492578157,22153117.0,22153188.0,71.0,494.46794855763414,9.51921338313796,9.951856739989632,3.141592653589793,73.0,-3.0960114337130813,1.0,0.5849989315455684,-8.934214451592391,-0.07269217492578157,-0.07269217492578157,22153117.0,22153188.0,71.0,494.46794855763414,9.51921338313796,9.951856739989632,3.141592653589793,-3.0960114337130813
138,22244.22638,3.50772,2,39,2,1,2,2,2,2,42.5,n/a,n/a,22155051.0,22158560.0,0.0,0.0,0.0,22156567.0,22155567.0,22157560.0,22155567.0,22156160.0,22157567.0,22158560.0,3509.0,516.0,593.0,993.0,1993.0,-22157567.0,0.0,0.0,0.0,1.0,0.0,0.0,0.0,0.2423072497526026,-9.083060333583274,-0.10384596417968683,0.7061525564218697,22156552.0,22156619.0,67.0,508.2879475494392,9.36047959068916,10.002753432441715,-3.05495042255407,392.0,-3.0407188090234856,1.0,-9.083060333583274,-9.211137022738223,0.7096140885611933,0.6749987671679644,22156622.0,22156642.0,20.0,21.408393955348735,0.132671996970159,0.19266777187778567,2.8776289299640916,2.8312052464574378
139,22247.74243,3.5078302,2,40,2,1,1,2,5,1,42.5,n/a,n/a,22158567.0,22162076.0,0.0,0.0,0.0,22160260.0,22159083.0,22161077.0,22159083.0,22160276.0,22161083.0,22162076.0,3509.0,516.0,1193.0,993.0,1994.0,-22161083.0,0.0,0.0,0.0,0.0,0.0,1.0,0.0,0.373845471046871,-8.52921519129161,-0.0034615321393236813,-0.7061525564218697,22160234.0,22160300.0,66.0,464.6289429412933,8.930748223574899,9.716308606056717,3.062829029170884,-42.0,3.0574159191128834,0.0,0.0,0.0,0.0,0.0,0.0,0.0,0.0,0.0,0.0,0.0,0.0,0.0
140,22251.25873,3.5077098,2,41,2,2,2,2,4,1,42.5,n/a,n/a,22162083.0,22165592.0,0.0,0.0,0.0,22163459.0,22162599.0,22164593.0,22162600.0,22163592.0,22164599.0,22165592.0,3509.0,517.0,992.0,993.0,1994.0,-22164599.0,0.0,0.0,0.0,0.0,0.0,1.0,0.0,0.3530762782109368,10.232289003838472,0.12461515701562499,0.21461499263802103,22163446.0,22163525.0,79.0,453.5667604869726,9.879622667319492,10.124338292997038,-0.009109769014585867,-146.0,-0.03522319535403388,0.0,0.0,0.0,0.0,0.0,0.0,0.0,0.0,0.0,0.0,0.0,0.0,0.0
141,22254.77491,3.5078253,2,42,2,2,1,2,5,1,42.5,n/a,n/a,22165599.0,22169109.0,0.0,0.0,0.0,22166959.0,22166116.0,22168108.0,22166116.0,22167308.0,22168116.0,22169109.0,3510.0,517.0,1192.0,993.0,1992.0,-22168116.0,0.0,0.0,0.0,0.0,0.0,1.0,0.0,0.5088452244804671,10.1457507003554,-0.05192298208984342,-0.09346136776171972,22166943.0,22167020.0,77.0,426.0747839039529,9.63699499784204,9.640401809710829,0.0043103181338142085,-365.0,0.026933140901930344,0.0,0.0,0.0,0.0,0.0,0.0,0.0,0.0,0.0,0.0,0.0,0.0,0.0
142,22258.29107,3.5077215,2,43,2,2,2,1,1,2,42.5,n/a,n/a,22169115.0,22172625.0,0.0,0.0,0.0,22170341.0,22169632.0,22171624.0,22169632.0,22170025.0,22171631.0,22172625.0,3510.0,517.0,393.0,994.0,1992.0,-22171631.0,0.0,0.0,0.0,1.0,0.0,0.0,0.0,0.21807652477734077,10.467673189312436,0.24923031403124998,-0.06576911064713421,22170327.0,22170415.0,88.0,349.43476862044974,10.254435938811879,10.532796157810127,0.030723190181527762,302.0,0.06182430412093792,1.0,0.10384596417968683,0.26653797472786445,-0.03807685353255263,-0.0,22171736.0,22171767.0,31.0,48.47518424297361,0.16708841094207522,0.4461081020545886,-0.22990442813190712,-0.11665543544106977
143,22261.80725,3.5077325,2,44,2,2,1,1,2,2,42.5,n/a,n/a,22172632.0,22176141.0,0.0,0.0,0.0,22173648.0,22173148.0,22175141.0,22173148.0,22173741.0,22175148.0,22176141.0,3509.0,516.0,593.0,993.0,1993.0,-22175148.0,0.0,0.0,0.0,0.0,0.0,1.0,0.0,-0.044999917811196055,7.033833307104123,0.06576911064713421,0.4223069209973947,22173627.0,22173672.0,45.0,377.63854357976527,7.087806362787741,7.095402105539594,-0.05032422259633895,-114.0,-0.06835300692351577,0.0,0.0,0.0,0.0,0.0,0.0,0.0,0.0,0.0,0.0,0.0,0.0,0.0
144,22265.32331,3.5078415,2,45,2,2,1,2,3,1,42.5,n/a,n/a,22176147.0,22179657.0,0.0,0.0,0.0,22177207.0,22176664.0,22178657.0,22176664.0,22177458.0,22178664.0,22179657.0,3510.0,517.0,794.0,993.0,1993.0,-22178664.0,0.0,0.0,0.0,0.0,0.0,1.0,0.0,0.10730749631901051,9.128060251394475,0.03807685353255263,0.5226913530377578,22177185.0,22177291.0,106.0,399.67998578325256,9.033760649991356,9.036135885363407,-0.05367058685988837,-273.0,-0.0755379043535166,0.0,0.0,0.0,0.0,0.0,0.0,0.0,0.0,0.0,0.0,0.0,0.0,0.0
145,22268.8397,3.5076229,2,46,2,1,1,1,5,1,42.5,n/a,n/a,22179664.0,22183173.0,0.0,0.0,0.0,22181613.0,22180180.0,22182173.0,22180180.0,22181374.0,22182180.0,22183173.0,3509.0,516.0,1194.0,993.0,1993.0,-22182180.0,0.0,0.0,0.0,1.0,0.0,0.0,0.0,-0.020769192835938154,-9.837674339955667,0.38769159960416577,-0.2423072497526026,22181599.0,22181646.0,47.0,440.3007499674157,9.837099431119759,9.837769951831978,3.077505641971729,225.0,3.076452224361705,0.0,0.0,0.0,0.0,0.0,0.0,0.0,0.0,0.0,0.0,0.0,0.0,0.0
146,22272.35568,3.51614,2,47,2,1,1,1,5,1,42.5,n/a,n/a,22183180.0,22186697.0,0.0,0.0,0.0,22185190.0,22183706.0,22185698.0,22183707.0,22184896.0,22185705.0,22186697.0,3517.0,527.0,1189.0,992.0,1992.0,-22185705.0,0.0,0.0,0.0,1.0,0.0,0.0,0.0,0.5053836923411433,-8.695368733979112,0.26653797472786445,-0.3461532139322894,22185172.0,22185225.0,53.0,529.6172453579854,9.221129849595433,10.182922714840746,3.0750994017922544,276.0,3.07389388248095,1.0,-7.006141049989537,-6.843449039441364,-0.702691024282546,-0.8446138419947854,22185776.0,22185809.0,33.0,41.64242186482701,0.2158952905544459,0.45219058380893357,0.7173217051394588,0.34353887343388984
147,22275.88016,3.5078332,2,48,2,2,1,2,3,2,42.5,n/a,n/a,22186704.0,22190213.0,0.0,0.0,0.0,22188037.0,22187221.0,22189214.0,22187221.0,22188014.0,22189221.0,22190214.0,3509.0,517.0,793.0,993.0,1993.0,-22189221.0,0.0,0.0,0.0,1.0,0.0,0.0,0.0,0.2388457176132789,9.02075275507546,0.03461532139322895,-0.10730749631901051,22188021.0,22188071.0,50.0,436.2404185442137,8.783053757140232,8.896071599731439,0.016159413167997197,7.0,0.027630179568791952,1.0,0.2388457176132789,9.02075275507546,0.03461532139322895,-0.10730749631901051,22188021.0,22188071.0,50.0,436.2404185442137,8.783053757140232,8.896071599731439,0.016159413167997197,0.027630179568791952
148,22279.39633,3.5078609,2,49,2,2,1,2,3,1,42.5,n/a,n/a,22190220.0,22193730.0,0.0,0.0,0.0,22191780.0,22190737.0,22192730.0,22190737.0,22191530.0,22192737.0,22193730.0,3510.0,517.0,793.0,993.0,1993.0,-22192737.0,0.0,0.0,0.0,1.0,0.0,0.0,0.0,0.22153805691666445,10.460750125033789,-0.2976917639817697,-0.4049992603007802,22191760.0,22191847.0,87.0,474.7146348165203,10.23977434686144,10.438376292324838,0.010479670435745799,230.0,0.04843486495623261,0.0,0.0,0.0,0.0,0.0,0.0,0.0,0.0,0.0,0.0,0.0,0.0,0.0
149,22282.91273,3.507657275,2,50,2,1,2,2,2,1,42.5,n/a,n/a,22193737.0,22197246.0,0.0,0.0,0.0,22195263.0,22194253.0,22196246.0,22194253.0,22194846.0,22196253.0,22197246.0,3509.0,516.0,593.0,993.0,1993.0,-22196253.0,0.0,0.0,0.0,1.0,0.0,0.0,0.0,0.31499942467838415,-9.501905722441345,0.2007688640807263,0.33923014965364207,22195243.0,22195308.0,65.0,522.9590501721889,9.817881553326478,10.283526880342361,-3.127489216399282,397.0,3.098156379577642,1.0,0.31499942467838415,-9.501905722441345,0.2007688640807263,0.33923014965364207,22195243.0,22195308.0,65.0,522.9590501721889,9.817881553326478,10.283526880342361,-3.127489216399282,3.098156379577642
150,22286.42871,3.5078333,2,51,2,2,1,2,4,1,42.5,n/a,n/a,22197253.0,22200762.0,0.0,0.0,0.0,22198962.0,22197769.0,22199763.0,22197770.0,22198762.0,22199769.0,22200762.0,3509.0,517.0,992.0,993.0,1994.0,-22199769.0,0.0,0.0,0.0,1.0,0.0,0.0,0.0,-0.024230724975261835,10.39151948224733,0.15576894626953025,-0.6473065100533828,22198943.0,22199040.0,97.0,466.6956852987538,10.446663705116851,10.662900140887036,0.0769497865130158,181.0,0.09330507266070603,1.0,10.384596417968684,10.481519317869722,-0.6611526386106736,-0.6646141707499973,22199042.0,22199061.0,19.0,22.403598895761995,0.096984693276715,0.11910890153910852,0.03569911267933266,-0.6202494859828291
151,22289.94505,3.5076529,2,52,2,2,1,2,1,1,42.5,n/a,n/a,22200769.0,22204279.0,0.0,0.0,0.0,22202179.0,22201286.0,22203278.0,22201286.0,22201679.0,22203285.0,22204279.0,3510.0,517.0,393.0,994.0,1992.0,-22203285.0,0.0,0.0,0.0,1.0,0.0,0.0,0.0,-0.020769192835938154,10.436519400058527,0.2769225711458316,0.2596149104492171,22202152.0,22202255.0,103.0,312.39674984111304,10.4573029156757,10.459215690091913,0.0016550795877253988,473.0,0.01919658236411487,1.0,-0.543460545873696,-1.3396129379179618,0.4465376459726526,0.48115296736588153,22203197.0,22203225.0,28.0,66.92295469357674,0.7969045437396894,0.772573339748221,-3.0981417581982624,3.0383573644166986
152,22293.46106,3.5078632,2,53,2,2,2,2,3,2,42.5,n/a,n/a,22204285.0,22207795.0,0.0,0.0,0.0,22206345.0,22204802.0,22206794.0,22204802.0,22205595.0,22206802.0,22207795.0,3510.0,517.0,793.0,993.0,1992.0,-22206802.0,0.0,0.0,0.0,0.0,0.0,0.0,1.0,0.10384596417968683,8.639984219749941,0.3703839389075513,1.2080747166236894,22206323.0,22206366.0,43.0,391.7300537667074,8.577143006694051,8.516826721427293,-0.09782141340682424,728.0,-0.10832329363433005,0.0,0.0,0.0,0.0,0.0,0.0,0.0,0.0,0.0,0.0,0.0,0.0,0.0
153,22296.97724,3.5078337,2,54,2,1,2,1,5,1,42.5,n/a,n/a,22207801.0,22211310.0,0.0,0.0,0.0,22209711.0,22208318.0,22210311.0,22208318.0,22209511.0,22210317.0,22211310.0,3509.0,517.0,1193.0,993.0,1993.0,-22210317.0,0.0,0.0,0.0,1.0,0.0,0.0,0.0,0.1730766069661447,-10.633826731999934,0.33923014965364207,0.543460545873696,22209697.0,22209754.0,57.0,528.0346382052899,10.808832954232217,11.517014745422607,-3.122696760650747,186.0,-3.0916792853345747,0.0,0.0,0.0,0.0,0.0,0.0,0.0,0.0,0.0,0.0,0.0,0.0,0.0
154,22300.49341,3.507852,2,55,2,1,2,2,4,2,42.5,n/a,n/a,22211317.0,22214826.0,0.0,0.0,0.0,22213143.0,22211834.0,22213827.0,22211834.0,22212827.0,22213834.0,22214826.0,3509.0,517.0,993.0,992.0,1993.0,-22213834.0,0.0,0.0,0.0,1.0,0.0,0.0,0.0,-0.2423072497526026,-10.907287771006441,0.3461532139322894,0.5746143351276013,22213122.0,22213199.0,77.0,409.8295038989345,10.667427243840082,10.896276935960481,-3.1201743130203514,295.0,-3.107594315958581,1.0,-8.016908434671825,-1.3673051950325432,0.8203831170195276,0.41538385671874734,22214039.0,22214173.0,134.0,124.17233042074385,6.661925220644959,6.693386857151506,0.06083063514092122,-0.06935463012696182
155,22304.00961,3.5078448,2,56,2,2,2,2,1,1,42.5,n/a,n/a,22214833.0,22218343.0,0.0,0.0,0.0,22216343.0,22215350.0,22217343.0,22215350.0,22215743.0,22217350.0,22218343.0,3510.0,517.0,393.0,993.0,1993.0,-22217350.0,0.0,0.0,0.0,0.0,0.0,0.0,1.0,0.4361530495546855,7.5288324030272955,-0.048461449950519736,0.3461532139322894,22216325.0,22216362.0,37.0,385.0162506245306,7.103648438945157,7.110173233396293,-0.05557959509309008,582.0,0.07016282428623499,0.0,0.0,0.0,0.0,0.0,0.0,0.0,0.0,0.0,0.0,0.0,0.0,0.0
156,22307.52594,3.5076767,2,57,2,1,1,2,2,1,42.5,n/a,n/a,22218350.0,22221859.0,0.0,0.0,0.0,22219883.0,22218866.0,22220860.0,22218866.0,22219459.0,22220866.0,22221859.0,3509.0,516.0,593.0,993.0,1994.0,-22220866.0,0.0,0.0,0.0,1.0,0.0,0.0,0.0,0.1349997534335921,-9.394598226122335,0.29076869970312236,-0.07615370706510526,22219868.0,22219942.0,74.0,541.7899877024478,9.536659252827743,10.031481917107826,3.1031082132254566,409.0,3.0891184098535716,1.0,0.26653797472786445,-0.006923064278647363,0.1765381391054684,0.32192248895702763,22220957.0,22220981.0,24.0,27.698266067048568,0.309705584444778,0.3372107991929607,-2.6529502509700786,2.5906101659161673
157,22311.04196,3.5078297,2,58,2,2,2,2,2,2,42.5,n/a,n/a,22221866.0,22225375.0,0.0,0.0,0.0,22223509.0,22222382.0,22224376.0,22222383.0,22222975.0,22224382.0,22225376.0,3509.0,517.0,592.0,994.0,1994.0,-22224382.0,0.0,0.0,0.0,0.0,0.0,0.0,1.0,0.03807685353255263,8.847676148109315,0.1626920105481776,0.4223069209973947,22223492.0,22223539.0,47.0,422.98457593300867,8.813423831447967,8.823755040819755,-0.029461021591158813,517.0,-0.06320187602946487,0.0,0.0,0.0,0.0,0.0,0.0,0.0,0.0,0.0,0.0,0.0,0.0,0.0
158,22314.55823,3.5077211,2,59,2,1,1,1,2,1,42.5,n/a,n/a,22225382.0,22228892.0,0.0,0.0,0.0,22226815.0,22225899.0,22227891.0,22225899.0,22226492.0,22227899.0,22228892.0,3510.0,517.0,593.0,993.0,1992.0,-22227899.0,0.0,0.0,0.0,1.0,0.0,0.0,0.0,0.1488458819908829,-9.851520468512959,-0.0553845142291671,-0.3530762782109368,22226795.0,22226850.0,55.0,521.84406826554,10.004796226342249,10.680570177152731,3.1118333559614926,303.0,3.0939324718933787,1.0,-2.253457422699205,-2.038842430061184,-0.2007688640807263,-0.2423072497526026,22227684.0,22227703.0,19.0,25.987119374010202,0.21859787864762859,0.19900046910478364,0.19118445959702013,-0.22810262827995345
159,22318.07444,3.5076813,2,60,2,2,2,2,4,1,42.5,n/a,n/a,22228898.0,22232408.0,0.0,0.0,0.0,22230591.0,22229415.0,22231407.0,22229415.0,22230408.0,22231415.0,22232408.0,3510.0,517.0,993.0,993.0,1992.0,-22231415.0,0.0,0.0,0.0,1.0,0.0,0.0,0.0,0.8653830348307235,9.42575201537624,-0.3011532961210934,0.33923014965364207,22230578.0,22230635.0,57.0,449.82532827937206,8.584288441141071,9.577468936721846,-0.0746688449485759,170.0,-0.07524729092644136,1.0,9.436136611794208,10.093827718265556,0.33923014965364207,0.34961474607161314,22230637.0,22230663.0,26.0,45.062743662249666,0.6577730850181335,0.6232007723137826,-0.015788161735828154,-0.15053784504670426
160,22321.59047,3.5079694,2,61,2,2,1,2,3,2,42.5,n/a,n/a,22232414.0,22235924.0,0.0,0.0,0.0,22233957.0,22232931.0,22234924.0,22232931.0,22233724.0,22234931.0,22235924.0,3510.0,517.0,793.0,993.0,1993.0,-22234931.0,0.0,0.0,0.0,1.0,0.0,0.0,0.0,0.373845471046871,9.290752261942652,-0.26307644258854074,-0.9034598883632762,22233941.0,22234027.0,86.0,420.76090350286177,8.93987235228477,8.971546751019169,0.07169368231691603,217.0,0.08692217449181645,0.0,0.0,0.0,0.0,0.0,0.0,0.0,0.0,0.0,0.0,0.0,0.0,0.0
161,22325.10664,3.5078592,2,62,2,1,2,2,3,1,42.5,n/a,n/a,22235930.0,22239439.0,0.0,0.0,0.0,22237441.0,22236447.0,22238440.0,22236447.0,22237241.0,22238447.0,22239440.0,3509.0,517.0,794.0,993.0,1993.0,-22238447.0,0.0,0.0,0.0,1.0,0.0,0.0,0.0,0.1384612855729158,-10.43998093219785,0.4119223245794236,0.32192248895702763,22237424.0,22237470.0,46.0,495.1033074634339,10.578825063546846,10.590746381705324,3.1330850054540034,183.0,-3.1007256584049236,1.0,-5.663066579932256,-5.2615288517708,0.6853833635859315,0.578075867266925,22238258.0,22238280.0,22.0,36.36439783557005,0.4156289762556472,0.40653480802797437,0.26113887238256,-0.2759604819850271
162,22328.62283,3.5078455,2,63,2,1,2,2,4,2,42.5,n/a,n/a,22239447.0,22242956.0,0.0,0.0,0.0,22241196.0,22239963.0,22241956.0,22239963.0,22240957.0,22241963.0,22242956.0,3509.0,516.0,994.0,993.0,1993.0,-22241963.0,0.0,0.0,0.0,1.0,0.0,0.0,0.0,0.16961507482682103,-10.04536626831504,0.5019221602018197,0.7165371528398408,22241179.0,22241224.0,45.0,470.88854769685264,10.217235606356612,10.205696909812298,-3.1205859169299033,222.0,-3.0815223000824794,1.0,-10.055750864733008,-9.522674915277284,0.6923064278645789,0.9346136776171815,22241226.0,22241248.0,22.0,86.0561921915508,0.5855619276991911,0.7520133759845165,-0.42662749312687664,-0.3232061574442971
163,22332.13917,3.5076801,2,64,2,1,1,1,4,2,42.5,n/a,n/a,22242963.0,22246472.0,0.0,0.0,0.0,22244746.0,22243479.0,22245472.0,22243479.0,22244472.0,22245479.0,22246472.0,3509.0,516.0,993.0,993.0,1993.0,-22245479.0,0.0,0.0,0.0,1.0,0.0,0.0,0.0,-0.22153805691666445,-12.028824184147059,0.26307644258854074,-1.0246135132395775,22244729.0,22244826.0,97.0,215.53269390924643,11.877295614432938,11.87383330022019,3.0329630438112374,257.0,3.030291558961639,1.0,-1.1526902023945222,-0.9138444847812434,0.4603837745299434,0.32192248895702763,22246098.0,22246121.0,23.0,30.088571531147732,0.2760775333574007,0.28515126063919477,0.5253668738153177,2.563690716627546
164,22335.65518,3.5078436,2,65,2,1,2,1,1,1,42.5,n/a,n/a,22246479.0,22249988.0,0.0,0.0,0.0,22247929.0,22246995.0,22248989.0,22246995.0,22247389.0,22248995.0,22249989.0,3509.0,516.0,394.0,994.0,1994.0,-22248995.0,0.0,0.0,0.0,0.0,0.0,0.0,1.0,0.04153838567187631,-9.81690514711973,0.16615354268749735,0.373845471046871,22247902.0,22247971.0,69.0,499.518864450284,9.86063105619241,10.587862656078686,-3.120528353855585,513.0,-3.0994056568677495,0.0,0.0,0.0,0.0,0.0,0.0,0.0,0.0,0.0,0.0,0.0,0.0,0.0
165,22339.17132,3.5079108,2,66,2,1,2,2,3,1,42.5,n/a,n/a,22249995.0,22253505.0,0.0,0.0,0.0,22251538.0,22250512.0,22252504.0,22250512.0,22251305.0,22252511.0,22253505.0,3510.0,517.0,793.0,994.0,1992.0,-22252511.0,0.0,0.0,0.0,1.0,0.0,0.0,0.0,0.7857677956262986,-9.013829690796817,-0.079615239204425,0.6680757028893171,22251517.0,22251589.0,72.0,512.5691629498947,9.828079804356458,10.288182485808811,-3.065442064814425,212.0,-3.0631176260642046,1.0,-0.328845553235675,-0.21807652477734077,0.02769225711458158,-0.04153838567187631,22252831.0,22252853.0,22.0,26.676015943813216,0.1306241155615202,0.18848670268321474,0.558599315343556,0.7724118804772727
166,22342.68756,3.5078173,2,67,2,1,2,1,3,1,42.5,n/a,n/a,22253511.0,22257021.0,0.0,0.0,0.0,22255104.0,22254028.0,22256020.0,22254028.0,22254821.0,22256027.0,22257021.0,3510.0,517.0,793.0,994.0,1992.0,-22256027.0,0.0,0.0,0.0,1.0,0.0,0.0,0.0,0.3634608746289039,-9.764982165029886,0.1107690284583342,0.6438449779140591,22255084.0,22255149.0,65.0,500.960032916937,10.14246165265123,10.837769124034907,-3.0890095919788516,263.0,-3.0751094732419966,1.0,-2.571918379516909,-2.502687736730451,0.3461532139322894,0.28038410328515523,22255958.0,22255999.0,41.0,64.50184308188554,0.09549061637638076,0.47069200742783274,0.7597627548757648,0.32175055439664746
167,22346.20371,3.5078166,2,68,2,2,1,1,1,1,42.5,n/a,n/a,22257027.0,22260536.0,0.0,0.0,0.0,22258310.0,22257544.0,22259537.0,22257544.0,22257937.0,22259544.0,22260536.0,3509.0,517.0,393.0,992.0,1993.0,-22259544.0,0.0,0.0,0.0,1.0,0.0,0.0,0.0,0.1765381391054684,9.661136200850194,0.21807652477734077,0.32192248895702763,22258292.0,22258374.0,82.0,468.6173208378141,9.485166544511923,9.522475475586424,-0.010948467628097381,355.0,0.02617583820388056,1.0,-2.890379336334617,-2.2465343584205577,0.4569222423906236,0.4223069209973947,22259776.0,22259795.0,19.0,58.25484234688126,0.6447748258580757,0.6356602147627987,0.05371172930323252,0.16962492325646072
168,22349.71986,3.6662369,2,69,2,2,2,2,5,1,42.5,n/a,n/a,22260543.0,22264211.0,0.0,0.0,0.0,22262343.0,22261220.0,22263211.0,22261220.0,22262411.0,22263218.0,22264212.0,3668.0,677.0,1191.0,994.0,1991.0,-22263218.0,0.0,0.0,0.0,1.0,0.0,0.0,0.0,1.7065353446861853,8.016908434671821,0.31846095681770786,0.5088452244804671,22262577.0,22262638.0,61.0,261.7376386230505,6.313244388124725,6.31127685922099,-0.030160900451659006,166.0,-0.059818658477718126,0.0,0.0,0.0,0.0,0.0,0.0,0.0,0.0,0.0,0.0,0.0,0.0,0.0
169,22353.39435,3.5079072,2,70,2,1,1,2,3,2,42.5,n/a,n/a,22264218.0,22267728.0,0.0,0.0,0.0,22265734.0,22264734.0,22266727.0,22264734.0,22265528.0,22266734.0,22267728.0,3510.0,516.0,794.0,994.0,1993.0,-22266734.0,0.0,0.0,0.0,1.0,0.0,0.0,0.0,-0.1107690284583342,-10.907287771006441,0.04153838567187631,-0.1349997534335921,22265718.0,22265778.0,60.0,503.67968998413807,10.797961968480504,11.243120865766429,3.125242715958764,190.0,3.0984760945281655,1.0,-0.328845553235675,-0.578075867266925,0.11423056059765394,0.12461515701562499,22267674.0,22267700.0,26.0,27.985178507973878,0.249446565971311,0.2901292615020872,-3.0999500744911956,-2.838707785214822
170,22356.91058,3.5078414,2,71,2,2,2,2,3,1,42.5,n/a,n/a,22267734.0,22271243.0,0.0,0.0,0.0,22269327.0,22268251.0,22270243.0,22268251.0,22269044.0,22270250.0,22271243.0,3509.0,517.0,793.0,993.0,1992.0,-22270250.0,0.0,0.0,0.0,1.0,0.0,0.0,0.0,0.294230231842446,8.813060826716086,0.031153789253905263,0.2976917639817697,22269304.0,22269365.0,61.0,430.9920291155531,8.522999307528261,8.77933882453245,-0.03127789049046906,260.0,0.04220066055337828,1.0,8.806137762437446,9.314982986917906,0.3011532961210934,0.2319226533346355,22269367.0,22269396.0,29.0,47.39546974023754,0.5135331969573097,0.5677334830861268,0.13522413172403328,-0.2715995917600754
171,22360.42677,3.6578013,2,72,2,1,1,1,4,2,42.5,n/a,n/a,22271250.0,22274909.0,0.0,0.0,0.0,22273117.0,22271917.0,22273910.0,22271917.0,22272910.0,22273916.0,22274909.0,3659.0,667.0,993.0,993.0,1993.0,-22273916.0,0.0,0.0,0.0,1.0,0.0,0.0,0.0,0.28038410328515523,-9.044983480050721,-0.33923014965364207,-0.46730683880859075,22273101.0,22273152.0,51.0,475.88898556806464,9.326247058846153,10.236436498056275,3.127859292847408,191.0,3.103033095384485,0.0,0.0,0.0,0.0,0.0,0.0,0.0,0.0,0.0,0.0,0.0,0.0,0.0
