onset	duration	run_number	trial_number	task	ext_mot_pos	ext_mot_ver_dir	staircase_num	fix_off_prct	trial_type	ext_mot_ori	direction_report	response_duration
1217.654943	3.7911293	1	1	2	2	2	2	4	2	-43.84615385	n/a	n/a
1221.454396	3.5078141	1	2	2	1	2	1	4	2	-43.84615385	n/a	n/a
1224.970735	3.5076297	1	3	2	1	2	1	2	2	-43.84615385	n/a	n/a
1228.486699	3.5078798	1	4	2	1	2	2	2	2	-43.84615385	n/a	n/a
1232.011356	3.5160349	1	5	2	2	2	2	5	2	-43.84615385	n/a	n/a
1235.544234	3.5076735	1	6	2	1	1	1	3	1	-43.84615385	n/a	n/a
1239.060239	3.5078375	1	7	2	2	2	1	5	1	-43.84615385	n/a	n/a
1242.576406	3.5078365	1	8	2	2	1	2	5	2	-43.84615385	n/a	n/a
1246.092574	3.6494875	1	9	2	2	1	2	4	1	-43.84615385	n/a	n/a
1249.750381	3.5078336	1	10	2	2	2	2	3	1	-43.84615385	n/a	n/a
1253.266543	3.5078396	1	11	2	2	2	1	4	2	-43.84615385	n/a	n/a
1256.78271	3.4995034	1	12	2	1	1	1	3	2	-43.84615385	n/a	n/a
1260.290545	3.5078374	1	13	2	1	2	2	4	2	-43.84615385	n/a	n/a
1263.806719	3.5078277	1	14	2	2	1	1	2	2	-43.84615385	n/a	n/a
1267.322892	3.5078437	1	15	2	1	2	2	2	2	-43.84615385	n/a	n/a
1270.839068	3.5078091	1	16	2	1	1	2	1	1	-43.84615385	n/a	n/a
1274.355314	3.5077652	1	17	2	1	1	1	5	2	-43.84615385	n/a	n/a
1277.87138	3.5078638	1	18	2	1	2	2	1	1	-43.84615385	n/a	n/a
1281.387575	3.5079983	1	19	2	1	2	2	2	1	-43.84615385	n/a	n/a
1284.903918	3.5076426	1	20	2	1	2	1	4	1	-43.84615385	n/a	n/a
1288.419894	3.5078413	1	21	2	1	1	1	2	1	-43.84615385	n/a	n/a
1291.95273	3.6578252	1	22	2	2	2	1	1	1	-43.84615385	n/a	n/a
1295.619109	3.507607118	1	23	2	1	1	2	2	1	-43.84615385	n/a	n/a
1299.135047	3.5078393	1	24	2	2	2	2	1	2	-43.84615385	n/a	n/a
1302.651217	3.5078554	1	25	2	2	2	1	5	2	-43.84615385	n/a	n/a
1306.167389	3.5078274	1	26	2	1	1	2	1	1	-43.84615385	n/a	n/a
1309.683542	3.5078504	1	27	2	1	2	1	4	2	-43.84615385	n/a	n/a
1313.199724	3.6328183	1	28	2	2	1	1	3	2	-43.84615385	n/a	n/a
1316.840878	3.5078218	1	29	2	2	2	2	2	1	-43.84615385	n/a	n/a
1320.357029	3.6744701	1	30	2	1	1	2	3	1	-43.84615385	n/a	n/a
1324.039833	3.649483	1	31	2	2	2	2	4	1	-43.84615385	n/a	n/a
1327.697643	3.6661516	1	32	2	2	1	2	3	1	-43.84615385	n/a	n/a
1331.372126	3.507825	1	33	2	2	2	2	1	1	-43.84615385	n/a	n/a
1334.888339	3.5077693	1	34	2	2	1	1	2	2	-43.84615385	n/a	n/a
1338.404442	3.5078673	1	35	2	1	1	2	5	2	-43.84615385	n/a	n/a
1341.920654	3.5078307	1	36	2	1	1	2	1	1	-43.84615385	n/a	n/a
1345.437001	3.5076646	1	37	2	2	1	1	4	2	-43.84615385	n/a	n/a
1348.953001	3.6078309	1	38	2	2	2	1	2	1	-43.84615385	n/a	n/a
1352.569286	3.5077063	1	39	2	1	1	2	5	1	-43.84615385	n/a	n/a
1356.085327	3.5078495	1	40	2	1	2	1	4	2	-43.84615385	n/a	n/a
1359.601509	3.5078208	1	41	2	1	1	2	2	1	-43.84615385	n/a	n/a
1363.117788	3.5077198	1	42	2	1	2	1	1	1	-43.84615385	n/a	n/a
1366.633837	3.5078468	1	43	2	1	2	1	3	1	-43.84615385	n/a	n/a
1370.150179	3.5076688	1	44	2	1	2	1	4	2	-43.84615385	n/a	n/a
1373.666174	3.5078399	1	45	2	1	1	1	4	2	-43.84615385	n/a	n/a
1377.182335	3.6578126	1	46	2	1	1	2	3	1	-43.84615385	n/a	n/a
1380.848482	3.6661752	1	47	2	1	2	2	2	2	-43.84615385	n/a	n/a
1384.522989	3.6328076	1	48	2	2	1	1	5	1	-43.84615385	n/a	n/a
1388.164267	3.507716	1	49	2	1	2	2	4	1	-43.84615385	n/a	n/a
1391.680303	3.508053147	1	50	2	2	2	1	3	2	-43.84615385	n/a	n/a
1395.196545	3.6577469	1	51	2	2	2	2	4	1	-43.84615385	n/a	n/a
1398.862609	3.6495032	1	52	2	2	1	1	5	2	-43.84615385	n/a	n/a
1402.52065	3.5076315	1	53	2	2	1	1	4	2	-43.84615385	n/a	n/a
1406.036614	3.5078415	1	54	2	2	2	2	4	2	-43.84615385	n/a	n/a
1409.552792	3.5078344	1	55	2	2	2	1	5	2	-43.84615385	n/a	n/a
1413.068963	3.507835	1	56	2	1	1	2	4	1	-43.84615385	n/a	n/a
1416.585219	3.5077475	1	57	2	1	1	1	4	2	-43.84615385	n/a	n/a
1420.101301	3.5078097	1	58	2	1	1	2	3	2	-43.84615385	n/a	n/a
1423.617583	3.5077094	1	59	2	1	1	2	4	1	-43.84615385	n/a	n/a
1427.133627	3.5078406	1	60	2	1	2	1	5	2	-43.84615385	n/a	n/a
1430.649795	3.5078709	1	61	2	1	1	2	2	1	-43.84615385	n/a	n/a
1434.165998	3.5078279	1	62	2	2	1	2	4	2	-43.84615385	n/a	n/a
1437.690459	3.5078605	1	63	2	1	2	1	5	1	-43.84615385	n/a	n/a
1441.206811	3.5077052	1	64	2	2	2	1	1	1	-43.84615385	n/a	n/a
1444.722833	3.5078438	1	65	2	2	1	2	3	1	-43.84615385	n/a	n/a
1448.239008	3.5078356	1	66	2	2	1	2	5	1	-43.84615385	n/a	n/a
1451.755189	3.5078006	1	67	2	1	2	1	4	1	-43.84615385	n/a	n/a
1455.271313	3.5078649	1	68	2	2	2	1	3	1	-43.84615385	n/a	n/a
1458.787517	3.5161548	1	69	2	2	2	1	3	2	-43.84615385	n/a	n/a
1462.311996	3.5078301	1	70	2	1	1	2	5	1	-43.84615385	n/a	n/a
1465.828174	3.5078382	1	71	2	2	1	2	5	1	-43.84615385	n/a	n/a
1469.344337	3.6078287	1	72	2	2	1	1	1	2	-43.84615385	n/a	n/a
1472.968826	3.5078343	1	73	2	1	2	2	2	1	-43.84615385	n/a	n/a
1476.484989	3.5078375	1	74	2	1	2	1	2	1	-43.84615385	n/a	n/a
1480.001159	3.5078489	1	75	2	2	1	1	1	2	-43.84615385	n/a	n/a
1483.517361	3.5078246	1	76	2	2	1	2	1	2	-43.84615385	n/a	n/a
1487.03352	3.5079199	1	77	2	2	2	1	5	2	-43.84615385	n/a	n/a
1490.549679	3.5078488	1	78	2	2	2	2	3	2	-43.84615385	n/a	n/a
1494.065851	3.5079401	1	79	2	2	1	2	5	1	-43.84615385	n/a	n/a
1497.58207	3.5078149	1	80	2	1	2	1	2	1	-43.84615385	n/a	n/a
1501.09822	3.5078446	1	81	2	2	1	1	5	1	-43.84615385	n/a	n/a
1504.614383	3.5078661	1	82	2	2	1	2	3	2	-43.84615385	n/a	n/a
1508.130569	3.5078553	1	83	2	2	1	2	2	2	-43.84615385	n/a	n/a
1511.646742	3.5078361	1	84	2	1	1	2	1	1	-43.84615385	n/a	n/a
1515.162911	3.5078305	1	85	2	2	2	2	3	1	-43.84615385	n/a	n/a
1518.679076	3.5078241	1	86	2	2	2	2	1	2	-43.84615385	n/a	n/a
1522.195237	3.5078599	1	87	2	1	2	2	4	1	-43.84615385	n/a	n/a
1525.711393	3.5078602	1	88	2	1	1	1	2	1	-43.84615385	n/a	n/a
1529.227578	3.5078399	1	89	2	2	1	1	5	2	-43.84615385	n/a	n/a
1532.743749	3.5078604	1	90	2	1	2	2	5	2	-43.84615385	n/a	n/a
1536.259946	3.5078207	1	91	2	1	1	2	3	1	-43.84615385	n/a	n/a
1539.776117	3.507863	1	92	2	2	1	1	2	1	-43.84615385	n/a	n/a
1543.292311	3.5078423	1	93	2	1	2	1	5	2	-43.84615385	n/a	n/a
1546.808461	3.6494718	1	94	2	2	2	1	2	2	-43.84615385	n/a	n/a
1550.466265	3.5078688	1	95	2	1	1	1	5	1	-43.84615385	n/a	n/a
1553.982468	3.5078721	1	96	2	1	1	1	3	1	-43.84615385	n/a	n/a
1557.498673	3.5078602	1	97	2	2	2	1	3	1	-43.84615385	n/a	n/a
1561.014815	3.5078174	1	98	2	2	1	1	4	2	-43.84615385	n/a	n/a
1564.530962	3.5078913	1	99	2	2	2	1	2	1	-43.84615385	n/a	n/a
1568.047185	3.5078392	1	100	2	2	1	2	4	2	-43.84615385	n/a	n/a
