,onset,duration,run_number,trial_number,task,ext_mot_pos,ext_mot_ver_dir,staircase_num,fix_off_prct,trial_type,ext_mot_ori,direction_report,response_duration,trial_onset,trial_offset,button_press_onset,button_left,button_right,fix_break,motion_onset,motion_offset,fixation_onset,fixation_offset,response_onset,response_offset,trial_duration,fix_check_duration,fixation_duration,response_duration,motion_duration,reaction_time,miss_time_trial,blink_trial,no_saccade_trial,main_sac_trial,innacurate_sac_trial,early_sac_trial,late_sac_trial,sac_x_onset_trial,sac_x_offset_trial,sac_y_onset_trial,sac_y_offset_trial,sac_t_onset_trial,sac_t_offset_trial,sac_dur_trial,sac_vpeak_trial,sac_dist_trial,sac_amp_trial,sac_dist_ang_trial,sac_lat_trial,sac_amp_ang_trial,cor_sac_trial,cor_sac_x_onset_trial,cor_sac_x_offset_trial,cor_sac_y_onset_trial,cor_sac_y_offset_trial,cor_sac_t_onset_trial,cor_sac_t_offset_trial,cor_sac_dur_trial,cor_sac_vpeak_trial,cor_sac_dist_trial,cor_sac_amp_trial,cor_sac_dist_ang_trial,cor_sac_amp_ang_trial,gabor_sac_onset_x,gabor_sac_onset_y,sac_onset_gabor_path_prct
0,1217.654943,3.7911293,1,1,2,2,2,2,4,2,-43.84615385,n/a,n/a,1148275.0,1152067.0,0.0,0.0,0.0,1150332.0,1149065.0,1151066.0,1149065.0,1150065.0,1151073.0,1152067.0,3792.0,790.0,1000.0,994.0,2001.0,-1151073.0,0.0,0.0,0.0,1.0,0.0,0.0,0.0,0.02769225711458158,8.979214369403591,-0.5157682887591105,0.048461449950519736,1150311.0,1150366.0,55.0,523.7273214483251,8.969286667558542,10.38443314775262,-0.06294843271058673,246.0,-0.0964844780391788,1.0,3.10153279683331,3.059994411161442,0.5365374815950487,0.3911531317434855,1151124.0,1151154.0,30.0,49.03837197373891,0.1512020061572815,0.45844069555663736,1.8490959857999651,2.4739270649964293,9.64639175257708,0.3681451823023958,0.625
1,1221.454396,3.5078141,1,2,2,1,2,1,4,2,-43.84615385,n/a,n/a,1152073.0,1155582.0,0.0,0.0,0.0,1153866.0,1152590.0,1154582.0,1152590.0,1153583.0,1154589.0,1155582.0,3509.0,517.0,993.0,993.0,1992.0,-1154589.0,0.0,0.0,0.0,1.0,0.0,0.0,0.0,0.16961507482682103,-9.861905064930925,-0.3807685353255184,0.34961474607161314,1153841.0,1153918.0,77.0,577.0642169759857,10.058074172132047,10.559669175582757,-3.068912068514069,258.0,-3.034193457378176,0.0,0.0,0.0,0.0,0.0,0.0,0.0,0.0,0.0,0.0,0.0,0.0,0.0,-10.353608247422917,0.3681451823023958,0.625
2,1224.970735,3.5076297,1,3,2,1,2,1,2,2,-43.84615385,n/a,n/a,1155589.0,1159098.0,0.0,0.0,0.0,1157015.0,1156106.0,1158099.0,1156106.0,1156698.0,1158105.0,1159098.0,3509.0,517.0,592.0,993.0,1993.0,-1158105.0,0.0,0.0,0.0,1.0,0.0,0.0,0.0,-0.18346120338411182,-9.744212972193948,-0.0,-0.17999967124479208,1156995.0,1157070.0,75.0,587.8801446625149,9.5624460399235,10.19598977710445,3.1227679405395956,297.0,3.086225972602743,1.0,-0.18346120338411182,-9.744212972193948,-0.0,-0.17999967124479208,1156995.0,1157070.0,75.0,587.8801446625149,9.5624460399235,10.19598977710445,3.1227679405395956,3.086225972602743,-9.855078587121753,-0.1508791730747518,0.44583333333333336
3,1228.486699,3.5078798,1,4,2,1,2,2,2,2,-43.84615385,n/a,n/a,1159105.0,1162615.0,0.0,0.0,0.0,1160415.0,1159622.0,1161615.0,1159622.0,1160215.0,1161622.0,1162615.0,3510.0,517.0,593.0,993.0,1993.0,-1161622.0,0.0,0.0,0.0,1.0,0.0,0.0,0.0,0.017307660696614473,-9.283829197664005,-0.33230708537499865,-0.6092296565208302,1160398.0,1160471.0,73.0,490.9880973289495,9.305258350436299,9.748331509510141,3.1118284651192987,183.0,3.0939926604180354,1.0,-3.589608828477843,-3.2780709359387825,0.16615354268749735,0.06576911064713421,1161343.0,1161366.0,23.0,33.88158471801641,0.3273116140373658,0.33232511369918893,0.3117174462492641,2.757217823821014,-9.692766604698118,-0.3198638469184749,0.3875
4,1232.011356,3.5160349,1,5,2,2,2,2,5,2,-43.84615385,n/a,n/a,1162633.0,1166148.0,0.0,0.0,0.0,1164648.0,1163155.0,1165148.0,1163156.0,1164348.0,1165155.0,1166151.0,3515.0,523.0,1192.0,996.0,1993.0,-1165155.0,0.0,0.0,0.0,1.0,0.0,0.0,0.0,0.16961507482682103,9.747674504333267,-0.04153838567187631,0.578075867266925,1164631.0,1164671.0,40.0,430.96692985052243,9.598080238131073,9.498427160154149,-0.06460098466092125,283.0,-0.08099245485541566,1.0,9.688828457964785,9.3288291154752,0.5746143351276013,0.5399990137343723,1164673.0,1164699.0,26.0,112.8321432417991,0.36165971170160693,0.872175595079989,3.045733506479781,3.054166675345385,9.33336150076007,0.6940441961438598,0.7375
5,1235.544234,3.5076735,1,6,2,1,1,1,3,1,-43.84615385,n/a,n/a,1166165.0,1169672.0,0.0,0.0,0.0,1167747.0,1166680.0,1168671.0,1166681.0,1167471.0,1168679.0,1169672.0,3507.0,516.0,790.0,993.0,1991.0,-1168679.0,0.0,0.0,0.0,1.0,0.0,0.0,0.0,0.048461449950519736,-10.062673929011655,-0.22153805691666445,-0.7857677956262986,1167726.0,1167802.0,76.0,566.6927984455579,10.126865944098643,10.416649775599103,3.0858476607966896,255.0,3.0770802352767603,0.0,0.0,0.0,0.0,0.0,0.0,0.0,0.0,0.0,0.0,0.0,0.0,0.0,-9.92464086530331,-0.07845716999887045,0.525
6,1239.060239,3.5078375,1,7,2,2,2,1,5,1,-43.84615385,n/a,n/a,1169678.0,1173187.0,0.0,0.0,0.0,1171621.0,1170195.0,1172188.0,1170195.0,1171388.0,1172195.0,1173187.0,3509.0,517.0,1193.0,992.0,1993.0,-1172195.0,0.0,0.0,0.0,1.0,0.0,0.0,0.0,0.05884604636849078,8.560368980545515,-0.21115346049869735,0.19384579980208289,1171596.0,1171660.0,64.0,408.6734159811407,8.511164233004914,9.374791514782547,-0.047602448255991886,208.0,-0.06244184244867909,1.0,0.996921256124992,1.0211519811002538,0.3426916817929658,0.1903842676627592,1172658.0,1172686.0,28.0,44.79605403231784,0.1542228142391943,0.35234588607072903,1.4130275891989317,-0.9882432605815491,9.43770491803241,0.5854111915300358,0.7
7,1242.576406,3.5078365,1,8,2,2,1,2,5,2,-43.84615385,n/a,n/a,1173195.0,1176704.0,0.0,0.0,0.0,1174811.0,1173711.0,1175704.0,1173711.0,1174905.0,1175711.0,1176704.0,3509.0,516.0,1194.0,993.0,1993.0,-1175711.0,0.0,0.0,0.0,0.0,0.0,1.0,0.0,-0.048461449950519736,9.11421412283718,-0.13153822129426843,-0.7892293277656184,1174792.0,1174845.0,53.0,351.92527147448214,9.186249574428723,9.191725614997454,0.07165647679861077,-113.0,0.0746345252217625,0.0,0.0,0.0,0.0,0.0,0.0,0.0,0.0,0.0,0.0,0.0,0.0,0.0,0.0,0.0,0.0
8,1246.092574,3.6494875,1,9,2,2,1,2,4,1,-43.84615385,n/a,n/a,1176711.0,1180362.0,0.0,0.0,0.0,1178594.0,1177370.0,1179362.0,1177370.0,1178361.0,1179369.0,1180362.0,3651.0,659.0,991.0,993.0,1992.0,-1179369.0,0.0,0.0,0.0,1.0,0.0,0.0,0.0,0.2007688640807263,9.048445012190049,-0.1626920105481776,-1.391535920007805,1178582.0,1178635.0,53.0,420.5603268651964,8.932604915456556,9.605956257873618,0.13800602365751938,221.0,0.12900342126316316,0.0,0.0,0.0,0.0,0.0,0.0,0.0,0.0,0.0,0.0,0.0,0.0,0.0,10.295639682271618,-0.3077935130724927,0.6041666666666666
9,1249.750381,3.5078336,1,10,2,2,2,2,3,1,-43.84615385,n/a,n/a,1180369.0,1183878.0,0.0,0.0,0.0,1181911.0,1180885.0,1182878.0,1180885.0,1181678.0,1182885.0,1183878.0,3509.0,516.0,793.0,993.0,1993.0,-1182885.0,0.0,0.0,0.0,1.0,0.0,0.0,0.0,0.13153822129426843,9.166137104927023,-0.24576878189192627,0.044999917811196055,1181891.0,1181963.0,72.0,474.5891150663978,9.039276709165685,9.504369459061062,-0.03217280287394035,213.0,-0.04444755703491548,1.0,0.13153822129426843,9.166137104927023,-0.24576878189192627,0.044999917811196055,1181891.0,1181963.0,72.0,474.5891150663978,9.039276709165685,9.504369459061062,-0.03217280287394035,-0.04444755703491548,9.982609430454609,0.018105500768971317,0.5041666666666667
10,1253.266543,3.5078396,1,11,2,2,2,1,4,2,-43.84615385,n/a,n/a,1183885.0,1187394.0,0.0,0.0,0.0,1185484.0,1184401.0,1186394.0,1184401.0,1185394.0,1186401.0,1187395.0,3509.0,516.0,993.0,994.0,1993.0,-1186401.0,0.0,0.0,0.0,1.0,0.0,0.0,0.0,0.15230741413020657,8.560368980545515,-0.08307677134374868,-0.24923031403124998,1185464.0,1185521.0,57.0,441.94072186846506,8.409703104413252,9.110648691534372,0.01975864692110654,70.0,0.04751081499142601,0.0,0.0,0.0,0.0,0.0,0.0,0.0,0.0,0.0,0.0,0.0,0.0,0.0,9.90145343924279,0.1025978376908309,0.5333333333333333
11,1256.78271,3.4995034,1,12,2,1,1,1,3,2,-43.84615385,n/a,n/a,1187401.0,1190902.0,0.0,0.0,0.0,1188901.0,1187910.0,1189902.0,1187910.0,1188701.0,1189909.0,1190902.0,3501.0,509.0,791.0,993.0,1992.0,-1189909.0,0.0,0.0,0.0,1.0,0.0,0.0,0.0,0.31846095681770786,-10.128443039658789,-0.13153822129426843,-0.9830751275677012,1188879.0,1188955.0,76.0,552.4973509678968,10.48155132670457,10.540652400351322,3.0602615233940096,178.0,3.0524788197448327,1.0,-0.30461482826041314,-0.4880760316445289,0.32192248895702763,0.16615354268749735,1190004.0,1190028.0,24.0,40.144819579686455,0.24066985222305615,0.3762257098209009,2.437646534498222,2.694404463423761,-10.040577995605908,0.04224616846093176,0.48333333333333334
12,1260.290545,3.5078374,1,13,2,1,2,2,4,2,-43.84615385,n/a,n/a,1190909.0,1194418.0,0.0,0.0,0.0,1192425.0,1191425.0,1193419.0,1191425.0,1192418.0,1193425.0,1194418.0,3509.0,516.0,993.0,993.0,1994.0,-1193425.0,0.0,0.0,0.0,1.0,0.0,0.0,0.0,0.20769192835937367,-9.179983233484318,-0.22153805691666445,0.4846144995052052,1192408.0,1192461.0,53.0,528.6797078187758,9.414196533812014,10.241707273650265,-3.0665128080825537,-10.0,-3.0647948401384104,0.0,0.0,0.0,0.0,0.0,0.0,0.0,0.0,0.0,0.0,0.0,0.0,0.0,-9.982609430454609,-0.018105500768971317,0.49166666666666664
13,1263.806719,3.5078277,1,14,2,2,1,1,2,2,-43.84615385,n/a,n/a,1194425.0,1197934.0,0.0,0.0,0.0,1195817.0,1194941.0,1196934.0,1194941.0,1195535.0,1196941.0,1197935.0,3509.0,516.0,594.0,994.0,1993.0,-1196941.0,0.0,0.0,0.0,1.0,0.0,0.0,0.0,-0.1730766069661447,7.968446984721305,-0.2699995068671842,-0.6403834457747355,1195801.0,1195853.0,52.0,439.04107115438313,8.149944211846114,9.159643124528788,0.045461851483813376,266.0,0.04006931335027217,0.0,0.0,0.0,0.0,0.0,0.0,0.0,0.0,0.0,0.0,0.0,0.0,0.0,9.808703735000718,0.19916050845867267,0.42916666666666664
14,1267.322892,3.5078437,1,15,2,1,2,2,2,2,-43.84615385,n/a,n/a,1197941.0,1201451.0,0.0,0.0,0.0,1199284.0,1198458.0,1200450.0,1198458.0,1199051.0,1200457.0,1201451.0,3510.0,517.0,593.0,994.0,1992.0,-1200457.0,0.0,0.0,0.0,1.0,0.0,0.0,0.0,-0.11769209273697762,-9.183444765623637,-0.2007688640807263,0.16615354268749735,1199259.0,1199331.0,72.0,520.4546560499721,9.07317494477761,9.509227604320055,-3.1011412686166526,208.0,-3.064709086626694,1.0,-9.245752344131452,-9.224983151295513,0.6023065922421829,0.6092296565208302,1199511.0,1199534.0,23.0,38.233872151417344,0.02189265150827254,0.18463307536355228,-0.32175055439669903,-2.1015698239977905,-9.727547743788898,-0.28365284538053226,0.4
15,1270.839068,3.5078091,1,16,2,1,1,2,1,1,-43.84615385,n/a,n/a,1201457.0,1204966.0,0.0,0.0,0.0,1203000.0,1201974.0,1203967.0,1201974.0,1202367.0,1203974.0,1204966.0,3509.0,517.0,393.0,992.0,1993.0,-1203974.0,0.0,0.0,0.0,1.0,0.0,0.0,0.0,-0.044999917811196055,-9.356521372589782,-0.28730716756379865,-0.8480753741341092,1202978.0,1203048.0,70.0,443.1395857336319,9.328391757655872,9.647812330946191,3.0814422532023644,611.0,3.065095941179332,1.0,-3.7557623711653405,-3.932300510270809,-0.21115346049869735,-0.33923014965364207,1204038.0,1204064.0,26.0,42.878931322078266,0.218103995524415,0.3368374931514774,2.51396322778831,2.75154458132635,-9.994203143484869,-0.006035166922989127,0.5
16,1274.355314,3.5077652,1,17,2,1,1,1,5,2,-43.84615385,n/a,n/a,1204973.0,1208482.0,0.0,0.0,0.0,1206933.0,1205490.0,1207483.0,1205490.0,1206683.0,1207489.0,1208482.0,3509.0,517.0,1193.0,993.0,1993.0,-1207489.0,0.0,0.0,0.0,1.0,0.0,0.0,0.0,0.05192298208984342,-8.747291716068956,-0.2769225711458316,-0.6299988493567683,1206915.0,1206966.0,51.0,505.6236902386853,8.806295598180267,9.260320513671353,3.101488283063658,232.0,3.085492837974482,1.0,-8.736907119650985,-9.335752179753849,-0.6299988493567683,-0.8342292455768183,1206968.0,1206988.0,20.0,60.98204965608072,0.6327127790315289,0.6338385781216199,2.812921794442913,2.8077528781539036,-9.402923778941629,-0.6216221930679785,0.7125
17,1277.87138,3.5078638,1,18,2,1,2,2,1,1,-43.84615385,n/a,n/a,1208489.0,1211999.0,0.0,0.0,0.0,1209939.0,1209006.0,1210999.0,1209006.0,1209399.0,1211006.0,1211999.0,3510.0,517.0,393.0,993.0,1993.0,-1211006.0,0.0,0.0,0.0,1.0,0.0,0.0,0.0,0.26653797472786445,-8.10690827029422,-0.38423006746484206,0.33230708537499865,1209924.0,1209969.0,45.0,451.0382871411026,8.404048281017564,8.780001418949585,-3.056228062956881,525.0,-3.0507899908331937,0.0,0.0,0.0,0.0,0.0,0.0,0.0,0.0,0.0,0.0,0.0,0.0,0.0,-9.889859726212533,-0.1146681715368131,0.4583333333333333
18,1281.387575,3.5079983,1,19,2,1,2,2,2,1,-43.84615385,n/a,n/a,1212006.0,1215515.0,0.0,0.0,0.0,1213372.0,1212522.0,1214515.0,1212522.0,1213115.0,1214522.0,1215515.0,3509.0,516.0,593.0,993.0,1993.0,-1214522.0,0.0,0.0,0.0,1.0,0.0,0.0,0.0,0.1211536248763013,-8.470369144923124,-0.23538418547395523,0.10038443204036315,1213352.0,1213393.0,41.0,484.6199939695175,8.598081417879774,8.61328528716302,-3.102531146443282,237.0,-3.0828840296279885,1.0,-8.442676887808538,-8.837291551691347,0.1107690284583342,-0.02769225711458158,1213402.0,1213428.0,26.0,42.131110812986435,0.41820122017259465,0.46420681840333794,2.804136584362011,-2.838707785214821,-9.773922595909934,-0.23537150999661138,0.4166666666666667
19,1284.903918,3.5076426,1,20,2,1,2,1,4,1,-43.84615385,n/a,n/a,1215522.0,1219031.0,0.0,0.0,0.0,1217331.0,1216038.0,1218031.0,1216038.0,1217031.0,1218038.0,1219031.0,3509.0,516.0,993.0,993.0,1993.0,-1218038.0,0.0,0.0,0.0,1.0,0.0,0.0,0.0,0.19730733194140657,-9.432675079654887,-0.0553845142291671,0.8584599705520762,1217313.0,1217357.0,44.0,467.45816730607197,9.673245215025775,9.673919661181477,-3.046980217802298,282.0,-3.0322394187159656,1.0,-9.50536725458067,-9.813443614980406,0.8584599705520762,0.8653830348307235,1217378.0,1217401.0,23.0,38.11616882803482,0.3081541378209204,0.3619412169798597,-3.1191245250039628,-2.919811684567197,-10.388389386513698,0.40435618384033445,0.6375
20,1288.419894,3.5078413,1,21,2,1,1,1,2,1,-43.84615385,n/a,n/a,1219038.0,1222547.0,0.0,0.0,0.0,1220748.0,1219554.0,1221547.0,1219554.0,1220148.0,1221554.0,1222548.0,3509.0,516.0,594.0,994.0,1993.0,-1221554.0,0.0,0.0,0.0,1.0,0.0,0.0,0.0,0.21807652477734077,-8.383830841440052,-0.49153756378385255,-0.45346071025129997,1220723.0,1220787.0,64.0,448.8468171531181,8.601991640530695,8.903418651855409,-3.137166123145282,575.0,3.10114779501132,1.0,-8.425369227111924,-9.051906544329368,-0.882690695527338,-0.872306099109371,1221758.0,1221796.0,38.0,99.23729616279853,0.6266233714990185,1.0439891409431108,-3.1250195854771783,3.0386247718947605,-9.762328882879675,-0.24744184384259355,0.5833333333333334
21,1291.95273,3.6578252,1,22,2,2,2,1,1,1,-43.84615385,n/a,n/a,1222572.0,1226230.0,0.0,0.0,0.0,1223972.0,1223239.0,1225230.0,1223239.0,1223629.0,1225237.0,1226230.0,3658.0,667.0,390.0,993.0,1991.0,-1225237.0,0.0,0.0,0.0,1.0,0.0,0.0,0.0,0.21461499263802103,9.429213547515568,-0.09346136776171972,-0.4776914352265578,1223957.0,1224019.0,62.0,361.79635191262895,9.222605882953875,9.673808805033461,0.04167382958686678,328.0,0.051191352586939465,1.0,9.42575201537624,9.851520468512954,-0.4776914352265578,-0.4707683709479144,1224022.0,1224042.0,20.0,42.111355988994276,0.42582473449229885,0.40925207148819814,-0.016258729805124102,0.14428939453773618,10.388389386513698,-0.40435618384033445,0.35833333333333334
22,1295.619109,3.507607118,1,23,2,1,1,2,2,1,-43.84615385,n/a,n/a,1226237.0,1229746.0,0.0,0.0,0.0,1227746.0,1226753.0,1228747.0,1226753.0,1227346.0,1228753.0,1229746.0,3509.0,516.0,593.0,993.0,1994.0,-1228753.0,0.0,0.0,0.0,1.0,0.0,0.0,0.0,0.28038410328515523,-9.200752426320252,-0.1349997534335921,-0.33923014965364207,1227725.0,1227786.0,61.0,494.6055835818411,9.483335908200145,9.91462631864522,3.1200552760195945,379.0,3.0940925833431585,0.0,0.0,0.0,0.0,0.0,0.0,0.0,0.0,0.0,0.0,0.0,0.0,0.0,-10.028984282575648,0.03017583461494957,0.4875
23,1299.135047,3.5078393,1,24,2,2,2,2,1,2,-43.84615385,n/a,n/a,1229753.0,1233262.0,0.0,0.0,0.0,1230969.0,1230269.0,1232263.0,1230269.0,1230663.0,1232269.0,1233262.0,3509.0,516.0,394.0,993.0,1994.0,-1232269.0,0.0,0.0,0.0,1.0,0.0,0.0,0.0,0.38423006746484206,10.1457507003554,-0.22499958905598813,-0.4084607924401,1230949.0,1231026.0,77.0,450.8866150481722,9.763244495529916,9.99684548791114,0.018792113824068066,286.0,0.03705856311788465,0.0,0.0,0.0,0.0,0.0,0.0,0.0,0.0,0.0,0.0,0.0,0.0,0.0,10.434764238634736,-0.4526375192242554,0.3416666666666667
24,1302.651217,3.5078554,1,25,2,2,2,1,5,2,-43.84615385,n/a,n/a,1233269.0,1236779.0,0.0,0.0,0.0,1234362.0,1233786.0,1235778.0,1233786.0,1234979.0,1235785.0,1236779.0,3510.0,517.0,1193.0,994.0,1992.0,-1235785.0,0.0,0.0,0.0,0.0,0.0,1.0,0.0,0.34961474607161314,10.159596828912695,0.017307660696614473,-0.5642297387096302,1234342.0,1234389.0,47.0,468.4834181466167,9.827203784015635,9.820913285970853,0.05921087584279535,-637.0,0.06030813441515775,0.0,0.0,0.0,0.0,0.0,0.0,0.0,0.0,0.0,0.0,0.0,0.0,0.0,0.0,0.0,0.0
25,1306.167389,3.5078274,1,26,2,1,1,2,1,1,-43.84615385,n/a,n/a,1236785.0,1240295.0,0.0,0.0,0.0,1238102.0,1237302.0,1239295.0,1237302.0,1237695.0,1239302.0,1240295.0,3510.0,517.0,393.0,993.0,1993.0,-1239302.0,0.0,0.0,0.0,1.0,0.0,0.0,0.0,0.05884604636849078,-9.567674833088478,-0.21461499263802103,0.02769225711458158,1238084.0,1238166.0,82.0,477.9759792801998,9.62956993047476,9.811514246913408,-3.1164271655156086,389.0,-3.074156169645447,1.0,0.05884604636849078,-9.567674833088478,-0.21461499263802103,0.02769225711458158,1238084.0,1238166.0,82.0,477.9759792801998,9.62956993047476,9.811514246913408,-3.1164271655156086,-3.074156169645447,-10.295639682271618,0.3077935130724927,0.39166666666666666
26,1309.683542,3.5078504,1,27,2,1,2,1,4,2,-43.84615385,n/a,n/a,1240301.0,1243810.0,0.0,0.0,0.0,1242177.0,1240818.0,1242811.0,1240818.0,1241811.0,1242818.0,1243810.0,3509.0,517.0,993.0,992.0,1993.0,-1242818.0,0.0,0.0,0.0,1.0,0.0,0.0,0.0,0.07615370706510526,-8.369984712882758,0.017307660696614473,0.5573066744309868,1242157.0,1242204.0,47.0,466.37607026279613,8.463383079109292,8.945373304583809,-3.077745127349907,346.0,-3.061793526360543,1.0,-8.88921453378119,-8.927291387313744,0.5192298208984342,0.4742299030872381,1242242.0,1242275.0,33.0,38.69250464759145,0.058947768218600656,0.15938090874793706,2.273053258303931,2.17084654019666,-10.481139090755773,0.5009188546081762,0.6708333333333333
27,1313.199724,3.6328183,1,28,2,2,1,1,3,2,-43.84615385,n/a,n/a,1243817.0,1247451.0,0.0,0.0,0.0,1245477.0,1244461.0,1246452.0,1244461.0,1245251.0,1246459.0,1247451.0,3634.0,644.0,790.0,992.0,1991.0,-1246459.0,0.0,1.0,0.0,0.0,0.0,0.0,0.0,0.0,0.0,0.0,0.0,0.0,0.0,0.0,0.0,0.0,0.0,0.0,0.0,0.0,0.0,0.0,0.0,0.0,0.0,0.0,0.0,0.0,0.0,0.0,0.0,0.0,0.0,0.0,0.0,0.0
28,1316.840878,3.5078218,1,29,2,2,2,2,2,1,-43.84615385,n/a,n/a,1247459.0,1250968.0,0.0,0.0,0.0,1248785.0,1247975.0,1249968.0,1247975.0,1248568.0,1249975.0,1250968.0,3509.0,516.0,593.0,993.0,1993.0,-1249975.0,0.0,0.0,0.0,1.0,0.0,0.0,0.0,0.048461449950519736,8.639984219749941,-0.1730766069661447,-0.33576861751432235,1248768.0,1248820.0,52.0,377.52042161908344,8.593063027482001,8.607800399521492,0.018934078717224443,200.0,-0.037005232042237206,1.0,-0.9830751275677012,-1.3396129379179618,-0.39807619602213284,-0.4119223245794236,1249980.0,1250004.0,24.0,28.286834502782593,0.3568065659224664,0.3278968179714429,3.102777207508332,2.950408193992773,10.284045969241358,-0.2957231792265144,0.3958333333333333
29,1320.357029,3.6744701,1,30,2,1,1,2,3,1,-43.84615385,n/a,n/a,1250975.0,1254651.0,0.0,0.0,0.0,1252658.0,1251658.0,1253650.0,1251658.0,1252451.0,1253658.0,1254651.0,3676.0,683.0,793.0,993.0,1992.0,-1253658.0,0.0,0.0,0.0,1.0,0.0,0.0,0.0,0.11769209273697762,-9.287290729803324,-0.11423056059765394,-0.3011532961210934,1252642.0,1252698.0,56.0,485.8026013711722,9.406840170925289,9.429107439013384,3.1217204079136116,191.0,3.087601060678108,1.0,-9.218060087016866,-9.515751850998637,-0.35653781035025656,-0.3773070031861947,1252706.0,1252729.0,23.0,43.6977970013403,0.2984153912143844,0.3439655356528544,3.071938079861223,2.7816441275623855,-10.017390569545388,0.018105500768971317,0.49166666666666664
30,1324.039833,3.649483,1,31,2,2,2,2,4,1,-43.84615385,n/a,n/a,1254657.0,1258308.0,0.0,0.0,0.0,1256334.0,1255318.0,1257309.0,1255318.0,1256307.0,1257315.0,1258308.0,3651.0,661.0,989.0,993.0,1991.0,-1257315.0,0.0,0.0,0.0,1.0,0.0,0.0,0.0,0.20769192835937367,7.885370213377552,-0.06576911064713421,0.26307644258854074,1256322.0,1256376.0,54.0,322.3275270414487,7.684717512447842,7.710721152335695,-0.042805216638002345,15.0,-0.09261078701800353,0.0,0.0,0.0,0.0,0.0,0.0,0.0,0.0,0.0,0.0,0.0,0.0,0.0,9.994203143484869,0.006035166922989127,0.5
31,1327.697643,3.6661516,1,32,2,2,1,2,3,1,-43.84615385,n/a,n/a,1258315.0,1261982.0,0.0,0.0,0.0,1259842.0,1258992.0,1260983.0,1258992.0,1259782.0,1260990.0,1261982.0,3667.0,677.0,790.0,992.0,1991.0,-1260990.0,0.0,0.0,0.0,1.0,0.0,0.0,0.0,0.2423072497526026,9.875751193488217,0.18346120338411182,-0.38423006746484206,1259824.0,1259879.0,55.0,384.27337748811556,9.650156247237371,9.598943465130617,0.058861141304064134,42.0,0.06025932623097881,1.0,7.172294592677039,1.9592271908567591,-0.4742299030872381,-0.08653830348307236,1260609.0,1260682.0,73.0,158.34591602151278,5.227463678718856,5.277092974248295,-3.0673601169430684,3.0647704529172306,9.773922595909939,0.23537150999661138,0.4166666666666667
32,1331.372126,3.507825,1,33,2,2,2,2,1,1,-43.84615385,n/a,n/a,1261990.0,1265499.0,0.0,0.0,0.0,1263373.0,1262506.0,1264499.0,1262506.0,1262900.0,1264506.0,1265499.0,3509.0,516.0,394.0,993.0,1993.0,-1264506.0,0.0,0.0,0.0,1.0,0.0,0.0,0.0,0.31499942467838415,9.325367583335881,0.19730733194140657,0.07269217492578157,1263360.0,1263413.0,53.0,489.8733872493178,9.01122984347347,9.916303023635274,0.01382931424185542,460.0,-0.022342650200136385,0.0,0.0,0.0,0.0,0.0,0.0,0.0,0.0,0.0,0.0,0.0,0.0,0.0,10.202889978029539,-0.21123084230465092,0.425
33,1334.888339,3.5077693,1,34,2,2,1,1,2,2,-43.84615385,n/a,n/a,1265506.0,1269015.0,0.0,0.0,0.0,1266872.0,1266022.0,1268016.0,1266023.0,1266615.0,1268022.0,1269015.0,3509.0,517.0,592.0,993.0,1994.0,-1268022.0,0.0,0.0,0.0,1.0,0.0,0.0,0.0,0.10038443204036315,8.345753987907495,0.05192298208984342,-0.9242290811992143,1266857.0,1266910.0,53.0,470.1004775721207,8.302950798570592,9.04203347685861,0.11783941811796689,242.0,0.11124908717394813,0.0,0.0,0.0,0.0,0.0,0.0,0.0,0.0,0.0,0.0,0.0,0.0,0.0,9.773922595909939,0.23537150999661138,0.4166666666666667
34,1338.404442,3.5078673,1,35,2,1,1,2,5,2,-43.84615385,n/a,n/a,1269022.0,1272531.0,0.0,0.0,0.0,1270605.0,1269539.0,1271532.0,1269539.0,1270731.0,1271538.0,1272531.0,3509.0,517.0,1192.0,993.0,1993.0,-1271538.0,0.0,0.0,0.0,0.0,0.0,1.0,0.0,0.4223069209973947,-9.010368158657492,0.03807685353255263,-1.3084591486640524,1270588.0,1270667.0,79.0,483.4348378530986,9.528300916929206,9.816163013447158,2.9997983527871583,-143.0,3.001490929193163,0.0,0.0,0.0,0.0,0.0,0.0,0.0,0.0,0.0,0.0,0.0,0.0,0.0,0.0,0.0,0.0
35,1341.920654,3.5078307,1,36,2,1,1,2,1,1,-43.84615385,n/a,n/a,1272538.0,1276048.0,0.0,0.0,0.0,1273988.0,1273055.0,1275048.0,1273055.0,1273448.0,1275054.0,1276048.0,3510.0,517.0,393.0,994.0,1993.0,-1275054.0,0.0,0.0,0.0,1.0,0.0,0.0,0.0,0.26307644258854074,-8.903060662338486,-0.294230231842446,-0.623075785078121,1273963.0,1274043.0,80.0,435.83432867709934,9.17203406143931,9.800639192053083,3.105731900803578,515.0,3.086466390793871,0.0,0.0,0.0,0.0,0.0,0.0,0.0,0.0,0.0,0.0,0.0,0.0,0.0,-10.121733986817723,0.12673850538279136,0.45416666666666666
36,1345.437001,3.5076646,1,37,2,2,1,1,4,2,-43.84615385,n/a,n/a,1276055.0,1279564.0,0.0,0.0,0.0,1277637.0,1276571.0,1278563.0,1276571.0,1277564.0,1278571.0,1279564.0,3509.0,516.0,993.0,993.0,1992.0,-1278571.0,0.0,0.0,0.0,1.0,0.0,0.0,0.0,0.2526918461705697,8.909983726617133,-0.079615239204425,-1.0661518989114498,1277622.0,1277701.0,79.0,370.1596622124763,8.713320680670023,8.80047829815589,0.1134649702227481,58.0,0.11352403635893825,1.0,0.2526918461705697,8.909983726617133,-0.079615239204425,-1.0661518989114498,1277622.0,1277701.0,79.0,370.1596622124763,8.713320680670023,8.80047829815589,0.1134649702227481,0.11352403635893825,10.075359134696688,-0.07845716999887045,0.525
37,1348.953001,3.6078309,1,38,2,2,2,1,2,1,-43.84615385,n/a,n/a,1279570.0,1283180.0,0.0,0.0,0.0,1281054.0,1280187.0,1282181.0,1280187.0,1280780.0,1282187.0,1283180.0,3610.0,617.0,593.0,993.0,1994.0,-1282187.0,0.0,0.0,0.0,1.0,0.0,0.0,0.0,0.07615370706510526,9.252675408410095,0.0034615321393236813,-0.24923031403124998,1281035.0,1281086.0,51.0,342.25531307686566,9.180000201763432,9.172670901860355,0.02752982159634882,255.0,0.03774641330474359,0.0,0.0,0.0,0.0,0.0,0.0,0.0,0.0,0.0,0.0,0.0,0.0,0.0,10.202889978029539,-0.21123084230465092,0.425
38,1352.569286,3.5077063,1,39,2,1,1,2,5,1,-43.84615385,n/a,n/a,1283187.0,1286695.0,0.0,0.0,0.0,1285120.0,1283703.0,1285696.0,1283703.0,1284896.0,1285703.0,1286695.0,3508.0,516.0,1193.0,992.0,1993.0,-1285703.0,0.0,0.0,0.0,1.0,0.0,0.0,0.0,0.08307677134374868,-9.214598554877547,0.07615370706510526,-0.5953835279635394,1285104.0,1285191.0,87.0,516.5424224384934,9.32189512544816,9.40443242664717,3.0694914961831863,208.0,3.060896778282108,0.0,0.0,0.0,0.0,0.0,0.0,0.0,0.0,0.0,0.0,0.0,0.0,0.0,-9.43770491803241,-0.5854111915300358,0.7
39,1356.085327,3.5078495,1,40,2,1,2,1,4,2,-43.84615385,n/a,n/a,1286703.0,1290212.0,0.0,0.0,0.0,1288419.0,1287219.0,1289212.0,1287219.0,1288213.0,1289219.0,1290212.0,3509.0,516.0,994.0,993.0,1993.0,-1289219.0,0.0,0.0,0.0,1.0,0.0,0.0,0.0,0.17999967124479208,-10.502288510705661,-0.08999983562239604,0.5469220780130157,1288404.0,1288485.0,81.0,493.01860447758435,10.701259286939427,10.8046595409169,-3.082039049635427,191.0,-3.0601275761471727,0.0,0.0,0.0,0.0,0.0,0.0,0.0,0.0,0.0,0.0,0.0,0.0,0.0,-10.260858543180838,0.271582511534554,0.5916666666666667
40,1359.601509,3.5078208,1,41,2,1,1,2,2,1,-43.84615385,n/a,n/a,1290219.0,1293728.0,0.0,0.0,0.0,1291785.0,1290735.0,1292729.0,1290735.0,1291328.0,1292735.0,1293728.0,3509.0,516.0,593.0,993.0,1994.0,-1292735.0,0.0,0.0,0.0,1.0,0.0,0.0,0.0,0.22499958905598813,-8.951522112289005,-0.5192298208984342,-1.1630747988124932,1291770.0,1291818.0,48.0,488.0845558316637,9.19908076336113,9.273967240400582,3.071545241756929,442.0,3.054514800271137,0.0,0.0,0.0,0.0,0.0,0.0,0.0,0.0,0.0,0.0,0.0,0.0,0.0,-9.947828291363829,-0.054316502306910014,0.5166666666666667
41,1363.117788,3.5077198,1,42,2,1,2,1,1,1,-43.84615385,n/a,n/a,1293735.0,1297244.0,0.0,0.0,0.0,1295085.0,1294252.0,1296245.0,1294252.0,1294645.0,1296251.0,1297244.0,3509.0,517.0,393.0,993.0,1993.0,-1296251.0,0.0,0.0,0.0,1.0,0.0,0.0,0.0,0.1869227355234355,-8.556907448406196,-0.10038443204036315,0.6196142529387973,1295062.0,1295120.0,58.0,514.0504725156292,8.773423755397355,9.51341386483009,-3.059434383376905,417.0,-3.054885835796382,1.0,-9.515751850998637,-9.536521043834574,0.7096140885611933,0.6957679600039025,1295548.0,1295569.0,21.0,35.84352968925517,0.024961463239990725,0.1150666600300872,2.5535900500422692,-1.9401299844685007,-9.739141456819159,-0.271582511534554,0.4041666666666667
42,1366.633837,3.5078468,1,43,2,1,2,1,3,1,-43.84615385,n/a,n/a,1297251.0,1300761.0,0.0,0.0,0.0,1298894.0,1297768.0,1299760.0,1297768.0,1298561.0,1299767.0,1300761.0,3510.0,517.0,793.0,994.0,1992.0,-1299767.0,0.0,0.0,0.0,1.0,0.0,0.0,0.0,0.16615354268749735,-9.242290811992127,-0.1903842676627592,0.8099985206015565,1298871.0,1298941.0,70.0,429.6593603020891,9.461479318698444,9.76742861329946,-3.0356624789410853,310.0,-3.0118748373616278,0.0,0.0,0.0,0.0,0.0,0.0,0.0,0.0,0.0,0.0,0.0,0.0,0.0,-10.144921412878244,0.1508791730747518,0.55
43,1370.150179,3.5076688,1,44,2,1,2,1,4,2,-43.84615385,n/a,n/a,1300767.0,1304277.0,0.0,0.0,0.0,1302534.0,1301284.0,1303276.0,1301284.0,1302277.0,1303283.0,1304277.0,3510.0,517.0,993.0,994.0,1992.0,-1303283.0,0.0,0.0,0.0,1.0,0.0,0.0,0.0,0.3115378925390605,-7.944216259746042,0.024230724975261835,1.7030738125468636,1302520.0,1302560.0,40.0,476.3252142003995,8.424724964986078,8.593930303242466,-2.940973897810822,243.0,-2.937166638439187,1.0,-7.95460085616401,-8.646907284028588,1.7203814732434781,1.550766398416657,1302562.0,1302602.0,40.0,89.86660115167997,0.7127814978456731,0.8210474038221366,2.901325380808856,2.806509555899006,-10.330420821362399,0.34400451461043535,0.6166666666666667
44,1373.666174,3.5078399,1,45,2,1,1,1,4,2,-43.84615385,n/a,n/a,1304283.0,1307793.0,0.0,0.0,0.0,1306017.0,1304800.0,1306793.0,1304800.0,1305793.0,1306800.0,1307793.0,3510.0,517.0,993.0,993.0,1993.0,-1306800.0,0.0,0.0,0.0,1.0,0.0,0.0,0.0,0.1765381391054684,-9.906904982742125,-0.14538434985156315,-2.1046115407083184,1306004.0,1306083.0,79.0,349.20990464614994,10.272020072844875,10.55848163057584,2.9496824659907523,211.0,2.9492764559594793,0.0,0.0,0.0,0.0,0.0,0.0,0.0,0.0,0.0,0.0,0.0,0.0,0.0,-9.715954030758638,-0.2957231792265144,0.6
45,1377.182335,3.6578126,1,46,2,1,1,2,3,1,-43.84615385,n/a,n/a,1307799.0,1311459.0,0.0,0.0,0.0,1309609.0,1308466.0,1310459.0,1308466.0,1309260.0,1310466.0,1311459.0,3660.0,667.0,794.0,993.0,1993.0,-1310466.0,0.0,0.0,0.0,1.0,0.0,0.0,0.0,-0.1211536248763013,-10.208058278863215,-0.020769192835938154,-0.6507680421927026,1309589.0,1309646.0,57.0,384.09707518364064,10.106559456551656,10.106344270233866,3.079216573158396,329.0,3.0795584178724944,1.0,-9.6611362008502,-33.26532385889301,-1.2634592308528565,18.726888873736858,1310656.0,1310719.0,63.0,14843.452541144045,30.93172630712315,44.53035762343213,-2.438902002369791,-2.4280423896224943,-9.820297448030974,-0.18709017461269048,0.5625
46,1380.848482,3.6661752,1,47,2,1,2,2,2,2,-43.84615385,n/a,n/a,1311466.0,1315134.0,0.0,0.0,0.0,1312999.0,1312142.0,1314133.0,1312142.0,1312732.0,1314141.0,1315134.0,3668.0,676.0,590.0,993.0,1991.0,-1314141.0,0.0,0.0,0.0,1.0,0.0,0.0,0.0,0.3807685353255184,-9.62652087945697,0.05192298208984342,0.8930752919453052,1312981.0,1313064.0,83.0,459.86873897310096,10.042578286455765,10.084346787222396,-3.05773580711047,249.0,-3.049813990051797,0.0,0.0,0.0,0.0,0.0,0.0,0.0,0.0,0.0,0.0,0.0,0.0,0.0,-9.785516308940194,-0.2233011761506331,0.42083333333333334
47,1384.522989,3.6328076,1,48,2,2,1,1,5,1,-43.84615385,n/a,n/a,1315140.0,1318775.0,0.0,0.0,0.0,1316716.0,1315783.0,1317774.0,1315784.0,1316975.0,1317781.0,1318775.0,3635.0,644.0,1191.0,994.0,1991.0,-1317781.0,0.0,0.0,0.0,0.0,0.0,1.0,0.0,0.31846095681770786,9.716520715079366,0.010384596417967108,-0.6542295743320262,1316701.0,1316770.0,69.0,413.9913006575107,9.421530619587186,9.880996696921837,0.07060069562387716,-274.0,0.07258039558409239,0.0,0.0,0.0,0.0,0.0,0.0,0.0,0.0,0.0,0.0,0.0,0.0,0.0,0.0,0.0,0.0
48,1388.164267,3.507716,1,49,2,1,2,2,4,1,-43.84615385,n/a,n/a,1318782.0,1322290.0,0.0,0.0,0.0,1320564.0,1319298.0,1321291.0,1319298.0,1320291.0,1321298.0,1322290.0,3508.0,516.0,993.0,992.0,1993.0,-1321298.0,0.0,0.0,0.0,1.0,0.0,0.0,0.0,0.1488458819908829,-9.121137187115826,-0.09346136776171972,0.4049992603007802,1320549.0,1320615.0,66.0,467.4396544497114,9.283374876587368,9.67176176348648,-3.087872917048017,258.0,-3.0566680976890144,1.0,-9.128060251394475,-9.28036766552468,0.40153772816145655,0.4292299852760381,1320617.0,1320638.0,21.0,27.71628510792303,0.15480442339652423,0.20653486125972023,-2.961739153797324,-2.904743892642875,-10.353608247422917,0.3681451823023958,0.625
49,1391.680303,3.508053147,1,50,2,2,2,1,3,2,-43.84615385,n/a,n/a,1322297.0,1325808.0,0.0,0.0,0.0,1324124.0,1322814.0,1324807.0,1322814.0,1323607.0,1324814.0,1325808.0,3511.0,517.0,793.0,994.0,1993.0,-1324814.0,0.0,0.0,0.0,1.0,0.0,0.0,0.0,-0.7546140063723894,9.398059758261658,0.27346103900650787,0.40153772816145655,1324105.0,1324157.0,52.0,437.4590892865488,10.153481580689128,10.15994179687229,-0.012614400770836705,498.0,-0.03782715713525097,1.0,9.411905886818953,9.276906133385356,0.4049992603007802,0.4119223245794236,1324159.0,1324187.0,28.0,57.46676226428334,0.13517715134643854,0.4988090633361194,-3.090355486186393,2.8747319617873095,9.58842318742578,0.42849685153229494,0.6458333333333334
50,1395.196545,3.6577469,1,51,2,2,2,2,4,1,-43.84615385,n/a,n/a,1325814.0,1329473.0,0.0,0.0,0.0,1327773.0,1326480.0,1328473.0,1326480.0,1327474.0,1328480.0,1329473.0,3659.0,666.0,994.0,993.0,1993.0,-1328480.0,0.0,0.0,0.0,1.0,0.0,0.0,0.0,0.1765381391054684,8.899599130199158,-0.0692306427864579,0.24576878189192627,1327749.0,1327794.0,45.0,406.9819936903345,8.728746627774697,8.71539279948489,-0.03609542693579688,275.0,-0.05483756680924201,1.0,1.8138428410051959,-0.10384596417968683,0.2526918461705697,-0.079615239204425,1328914.0,1328945.0,31.0,119.7012406357004,1.9462678008233725,1.999944941272137,2.970011316364542,-2.948270390967655,9.623204326516559,0.39228584999435623,0.6333333333333333
51,1398.862609,3.6495032,1,52,2,2,1,1,5,2,-43.84615385,n/a,n/a,1329480.0,1333131.0,0.0,0.0,0.0,1331639.0,1330139.0,1332130.0,1330140.0,1331329.0,1332138.0,1333131.0,3651.0,660.0,1189.0,993.0,1991.0,-1332138.0,0.0,0.0,0.0,1.0,0.0,0.0,0.0,0.4257684531367144,9.958827964831968,-0.16615354268749735,-1.5576894626953024,1331615.0,1331668.0,53.0,316.41898336056437,9.634085108104212,9.655117262813217,0.1449458256458199,286.0,0.15224046424272727,1.0,10.000366350503844,9.809982082841087,-1.5784586555312405,-1.6269201054817604,1331670.0,1331693.0,23.0,74.49446284845001,0.1964552913636888,0.5444187880067377,2.8923405122045835,3.014083095374556,10.666638499239927,-0.6940441961438598,0.7375
52,1402.52065,3.5076315,1,53,2,2,1,1,4,2,-43.84615385,n/a,n/a,1333138.0,1336647.0,0.0,0.0,0.0,1334914.0,1333654.0,1335647.0,1333654.0,1334647.0,1335654.0,1336647.0,3509.0,516.0,993.0,993.0,1993.0,-1335654.0,0.0,0.0,0.0,1.0,0.0,0.0,0.0,0.4257684531367144,9.605751686621032,-0.062307578507810525,-1.3015360843854091,1334894.0,1334959.0,65.0,414.33766936653683,9.263248860784902,9.630147274674105,0.13418132145025263,247.0,0.13157766087058892,0.0,0.0,0.0,0.0,0.0,0.0,0.0,0.0,0.0,0.0,0.0,0.0,0.0,10.342014534392657,-0.3560748484564136,0.6208333333333333
53,1406.036614,3.5078415,1,54,2,2,2,2,4,2,-43.84615385,n/a,n/a,1336654.0,1340163.0,0.0,0.0,0.0,1338270.0,1337170.0,1339163.0,1337170.0,1338164.0,1339170.0,1340163.0,3509.0,516.0,994.0,993.0,1993.0,-1339170.0,0.0,0.0,0.0,1.0,0.0,0.0,0.0,0.1903842676627592,9.439598143933534,0.01384612855729079,0.02769225711458158,1338255.0,1338299.0,44.0,390.6597138783858,9.24922424013365,9.154015034041317,-0.0014970048697484602,91.0,0.033661136204514025,0.0,0.0,0.0,0.0,0.0,0.0,0.0,0.0,0.0,0.0,0.0,0.0,0.0,9.87826601318227,0.12673850538279136,0.5416666666666666
54,1409.552792,3.5078344,1,55,2,2,2,1,5,2,-43.84615385,n/a,n/a,1340170.0,1343679.0,0.0,0.0,0.0,1342080.0,1340686.0,1342679.0,1340686.0,1341880.0,1342686.0,1343679.0,3509.0,516.0,1194.0,993.0,1993.0,-1342686.0,0.0,0.0,0.0,1.0,0.0,0.0,0.0,0.5296144173164012,9.505367254580666,-0.16615354268749735,0.6957679600039025,1342062.0,1342140.0,78.0,399.59378543513526,9.017042068908145,9.223759519194662,-0.09573422151487813,182.0,-0.10489658200830196,1.0,-1.156151734533846,-0.7684601349296841,-0.46384530666926704,-0.4569222423906236,1343301.0,1343340.0,39.0,86.54599543486599,0.3877534077511634,0.6124075511650672,-0.017855245139546536,-0.1818757417274567,9.472486057123188,0.5492001899920971,0.6875
55,1413.068963,3.507835,1,56,2,1,1,2,4,1,-43.84615385,n/a,n/a,1343686.0,1347195.0,0.0,0.0,0.0,1345529.0,1344203.0,1346196.0,1344203.0,1345195.0,1346202.0,1347195.0,3509.0,517.0,992.0,993.0,1993.0,-1346202.0,0.0,0.0,0.0,1.0,0.0,0.0,0.0,0.41538385671874734,-8.871906873084576,-0.5365374815950487,-1.0834595596080643,1345500.0,1345584.0,84.0,529.9775400312044,9.303380722044478,9.363538492814605,3.08277128432519,305.0,3.0512674608005415,0.0,0.0,0.0,0.0,0.0,0.0,0.0,0.0,0.0,0.0,0.0,0.0,0.0,-9.576829474395524,-0.4405671853782771,0.65
56,1416.585219,3.5077475,1,57,2,1,1,1,4,2,-43.84615385,n/a,n/a,1347202.0,1350712.0,0.0,0.0,0.0,1348995.0,1347719.0,1349712.0,1347719.0,1348711.0,1349719.0,1350712.0,3510.0,517.0,992.0,993.0,1993.0,-1349719.0,0.0,0.0,0.0,1.0,0.0,0.0,0.0,0.2423072497526026,-8.51536906273432,-0.26307644258854074,-1.121536413140617,1348982.0,1349035.0,53.0,510.08259790710025,8.799650442792306,9.310855504242564,3.043881098960021,271.0,3.026460362728389,0.0,0.0,0.0,0.0,0.0,0.0,0.0,0.0,0.0,0.0,0.0,0.0,0.0,-9.623204326516559,-0.39228584999435623,0.6333333333333333
57,1420.101301,3.5078097,1,58,2,1,1,2,3,2,-43.84615385,n/a,n/a,1350718.0,1354228.0,0.0,0.0,0.0,1352418.0,1351235.0,1353227.0,1351235.0,1352028.0,1353234.0,1354228.0,3510.0,517.0,793.0,994.0,1992.0,-1353234.0,0.0,0.0,0.0,1.0,0.0,0.0,0.0,0.5573066744309868,-9.162675572787704,-0.39807619602213284,-1.2530746344348893,1352394.0,1352468.0,74.0,548.0786548411763,9.757513884998307,9.762681772839784,3.0538555138076697,366.0,3.0407244532686746,0.0,0.0,0.0,0.0,0.0,0.0,0.0,0.0,0.0,0.0,0.0,0.0,0.0,-9.773922595909934,-0.23537150999661138,0.5791666666666667
58,1423.617583,3.5077094,1,59,2,1,1,2,4,1,-43.84615385,n/a,n/a,1354235.0,1357744.0,0.0,0.0,0.0,1355977.0,1354751.0,1356744.0,1354751.0,1355744.0,1356751.0,1357744.0,3509.0,516.0,993.0,993.0,1993.0,-1356751.0,0.0,0.0,0.0,1.0,0.0,0.0,0.0,0.4257684531367144,-8.795753166019475,-0.33230708537499865,-0.9796135954283776,1355952.0,1356008.0,56.0,505.0295778832412,9.244212605220765,9.47772619968411,3.0715124111961702,208.0,3.0604229083797523,1.0,-8.792291633880152,-9.190367829902284,-0.9692289990104104,-1.0661518989114498,1356013.0,1356035.0,22.0,38.1336292819187,0.4097056337966058,0.41564339055020155,2.902761454005139,2.9147938055359024,-9.715954030758638,-0.2957231792265144,0.6
59,1427.133627,3.5078406,1,60,2,1,2,1,5,2,-43.84615385,n/a,n/a,1357750.0,1361259.0,0.0,0.0,0.0,1359717.0,1358267.0,1360260.0,1358267.0,1359460.0,1360267.0,1361260.0,3509.0,517.0,1193.0,993.0,1993.0,-1360267.0,0.0,0.0,0.0,1.0,0.0,0.0,0.0,0.5988450601028592,-8.075754481040311,-0.3946146638828092,0.31846095681770786,1359699.0,1359753.0,54.0,428.52531383589985,8.703858571923071,8.926042383439789,-3.0595743487675073,239.0,-3.0507221070283554,1.0,-8.065369884622344,-8.581138173381454,0.31846095681770786,0.24923031403124998,1359755.0,1359779.0,24.0,48.899033998424024,0.5203938984943303,0.5290258560621697,3.0081620006404752,2.917245983063139,-10.608669934088628,0.6336925269139567,0.7166666666666667
60,1430.649795,3.5078709,1,61,2,1,1,2,2,1,-43.84615385,n/a,n/a,1361267.0,1364776.0,0.0,0.0,0.0,1362950.0,1361783.0,1363776.0,1361783.0,1362376.0,1363783.0,1364776.0,3509.0,516.0,593.0,993.0,1993.0,-1363783.0,0.0,0.0,0.0,1.0,0.0,0.0,0.0,0.46730683880859075,-9.076137269304631,-0.03461532139322895,0.03807685353255263,1362934.0,1363019.0,85.0,360.5804183274415,9.54372095133635,9.560361367189012,-3.1339758259198685,558.0,3.116244950746541,1.0,-1.6373047018997275,-1.699612280407542,0.14538434985156315,0.10038443204036315,1363915.0,1363942.0,27.0,35.31026723496445,0.07685848647041013,0.2766628344266701,2.5161076133505573,2.5882983282674927,-9.785516308940194,-0.2233011761506331,0.575
61,1434.165998,3.5078279,1,62,2,2,1,2,4,2,-43.84615385,n/a,n/a,1364783.0,1368292.0,0.0,0.0,0.0,1366509.0,1365299.0,1367292.0,1365299.0,1366292.0,1367299.0,1368292.0,3509.0,516.0,993.0,993.0,1993.0,-1367299.0,0.0,0.0,0.0,1.0,0.0,0.0,0.0,0.4257684531367144,9.321906051196553,-0.23538418547395523,-1.1699978630911367,1366488.0,1366535.0,47.0,443.6590376055313,8.945097366155553,8.951982567212026,0.10467438657582348,196.0,0.10459358381553766,1.0,8.98613743368223,9.477674997466083,-1.2080747166236894,-1.2565361665742092,1366556.0,1366585.0,29.0,39.824338468809174,0.49392073123313185,0.4860957495194486,0.09827395325600727,0.18622284041114065,10.272452256211098,-0.28365284538053226,0.5958333333333333
62,1437.690459,3.5078605,1,63,2,1,2,1,5,1,-43.84615385,n/a,n/a,1368307.0,1371816.0,0.0,0.0,0.0,1370033.0,1368824.0,1370817.0,1368824.0,1370017.0,1370824.0,1371817.0,3509.0,517.0,1193.0,993.0,1993.0,-1370824.0,0.0,0.0,0.0,1.0,0.0,0.0,0.0,0.543460545873696,-9.754597568611915,-0.28730716756379865,0.26653797472786445,1370013.0,1370092.0,79.0,458.7317388596506,10.312940675237252,10.428088915139005,-3.0878629046451533,-4.0,-3.066170083021532,1.0,-0.8480753741341092,-1.041921173936192,-0.30461482826041314,-0.3011532961210934,1371034.0,1371053.0,19.0,36.99505445117635,0.19387670387558362,0.2662681083325818,-3.123737408450257,-2.6837589325708304,-10.272452256211098,0.28365284538053226,0.5958333333333333
63,1441.206811,3.5077052,1,64,2,2,2,1,1,1,-43.84615385,n/a,n/a,1371824.0,1375333.0,0.0,0.0,0.0,1373190.0,1372340.0,1374333.0,1372340.0,1372733.0,1374340.0,1375333.0,3509.0,516.0,393.0,993.0,1993.0,-1374340.0,0.0,0.0,0.0,1.0,0.0,0.0,0.0,0.3530762782109368,9.124598719255147,-0.19730733194140657,-0.5573066744309868,1373175.0,1373242.0,67.0,445.44694500330206,8.778906848824352,9.213738983326458,0.041018810302272564,442.0,0.045474457367249276,1.0,0.3530762782109368,9.124598719255147,-0.19730733194140657,-0.5573066744309868,1373175.0,1373242.0,67.0,445.44694500330206,8.778906848824352,9.213738983326458,0.041018810302272564,0.045474457367249276,10.22607740409006,-0.23537150999661138,0.4166666666666667
64,1444.722833,3.5078438,1,65,2,2,1,2,3,1,-43.84615385,n/a,n/a,1375340.0,1378849.0,0.0,0.0,0.0,1376983.0,1375856.0,1377849.0,1375856.0,1376649.0,1377856.0,1378849.0,3509.0,516.0,793.0,993.0,1993.0,-1377856.0,0.0,0.0,0.0,1.0,0.0,0.0,0.0,0.6196142529387973,11.042287524440033,-0.13153822129426843,-1.041921173936192,1376966.0,1377049.0,83.0,463.8456654514797,10.462357059713042,10.633408680675762,0.08712527455429436,317.0,0.09160300510561713,1.0,0.6196142529387973,11.042287524440033,-0.13153822129426843,-1.041921173936192,1376966.0,1377049.0,83.0,463.8456654514797,10.462357059713042,10.633408680675762,0.08712527455429436,0.09160300510561713,10.156515125908507,-0.16294950692073004,0.5541666666666667
65,1448.239008,3.5078356,1,66,2,2,1,2,5,1,-43.84615385,n/a,n/a,1378856.0,1382365.0,0.0,0.0,0.0,1380415.0,1379372.0,1381366.0,1379372.0,1380565.0,1381372.0,1382365.0,3509.0,516.0,1193.0,993.0,1994.0,-1381372.0,0.0,0.0,0.0,0.0,0.0,1.0,0.0,0.8307677134374947,10.443442464337174,-0.1869227355234355,-0.6438449779140591,1380391.0,1380459.0,68.0,417.92097564389917,9.623528136924394,10.111877193283627,0.04749755861432374,-174.0,0.04691551402502388,0.0,0.0,0.0,0.0,0.0,0.0,0.0,0.0,0.0,0.0,0.0,0.0,0.0,0.0,0.0,0.0
66,1451.755189,3.5078006,1,67,2,1,2,1,4,1,-43.84615385,n/a,n/a,1382372.0,1385881.0,0.0,0.0,0.0,1384098.0,1382888.0,1384882.0,1382888.0,1383881.0,1384888.0,1385882.0,3509.0,516.0,993.0,994.0,1994.0,-1384888.0,0.0,0.0,0.0,1.0,0.0,0.0,0.0,0.4292299852760381,-9.623059347317646,-0.0553845142291671,0.39807619602213284,1384079.0,1384118.0,39.0,521.0308606586906,10.06251198468446,10.122647514957288,-3.0965130221341948,198.0,-3.0871943205134906,1.0,-9.636905475874936,-9.695751522243429,0.40153772816145655,0.22499958905598813,1384121.0,1384154.0,33.0,82.9344220840743,0.18608753782030724,0.73561426630092,1.8925468811915456,2.874927892947653,-10.272452256211098,0.28365284538053226,0.5958333333333333
67,1455.271313,3.5078649,1,68,2,2,2,1,3,1,-43.84615385,n/a,n/a,1385888.0,1389398.0,0.0,0.0,0.0,1387414.0,1386404.0,1388397.0,1386405.0,1387198.0,1388405.0,1389398.0,3510.0,517.0,793.0,993.0,1993.0,-1388405.0,0.0,0.0,0.0,1.0,0.0,0.0,0.0,0.5330759494557249,9.17652170134499,-0.12807668915494866,-0.22499958905598813,1387396.0,1387457.0,61.0,437.908138406987,8.64398915515156,9.298523917024795,0.011212986183531334,198.0,0.049159020520407146,1.0,0.8792291633880144,0.4396145816940092,-0.17999967124479208,-0.1869227355234355,1388246.0,1388268.0,22.0,40.83124606930282,0.4396690906318085,0.43622172534114934,3.12584592373993,0.12730774187085592,10.00579685651513,-0.006035166922989127,0.49583333333333335
68,1458.787517,3.5161548,1,69,2,2,2,1,3,2,-43.84615385,n/a,n/a,1389404.0,1392922.0,0.0,0.0,0.0,1390971.0,1389922.0,1391923.0,1389922.0,1390714.0,1391929.0,1392922.0,3518.0,518.0,792.0,993.0,2001.0,-1391929.0,0.0,0.0,0.0,1.0,0.0,0.0,0.0,0.6369219136354117,9.162675572787704,-0.2319226533346355,-0.062307578507810525,1390955.0,1391022.0,67.0,412.5395888273466,8.527440690509502,8.9399447287586,-0.019891813636526815,241.0,-0.06005183617805029,0.0,0.0,0.0,0.0,0.0,0.0,0.0,0.0,0.0,0.0,0.0,0.0,0.0,9.947828291363829,0.054316502306910014,0.5166666666666667
69,1462.311996,3.5078301,1,70,2,1,1,2,5,1,-43.84615385,n/a,n/a,1392928.0,1396438.0,0.0,0.0,0.0,1394895.0,1393445.0,1395438.0,1393445.0,1394638.0,1395445.0,1396439.0,3510.0,517.0,1193.0,994.0,1993.0,-1395445.0,0.0,0.0,0.0,1.0,0.0,0.0,0.0,0.3599993424895802,-8.283446409399685,-0.26307644258854074,-0.6749987671679644,1394874.0,1394946.0,72.0,480.21576689596577,8.653255714893643,9.062718202831709,3.0939714956663558,236.0,3.0678088012359694,1.0,-8.096523673876248,-8.082677545318958,-0.7961523920442657,-0.8515369062734328,1395478.0,1395500.0,22.0,59.61031275610704,0.057089050547594826,0.19933135969081825,1.3258176636680492,1.2160906747839548,-9.402923778941629,-0.6216221930679785,0.7125
70,1465.828174,3.5078382,1,71,2,2,1,2,5,1,-43.84615385,n/a,n/a,1396445.0,1399954.0,0.0,0.0,0.0,1398244.0,1396961.0,1398954.0,1396961.0,1398154.0,1398961.0,1399954.0,3509.0,516.0,1193.0,993.0,1993.0,-1398961.0,0.0,0.0,0.0,1.0,0.0,0.0,0.0,0.5711528029882775,9.823828211398373,-0.28730716756379865,-1.1838439916484313,1398223.0,1398310.0,87.0,474.5891150663978,9.2960088473676,9.521962701369523,0.09659333520114717,69.0,0.09648544747140551,0.0,0.0,0.0,0.0,0.0,0.0,0.0,0.0,0.0,0.0,0.0,0.0,0.0,10.365201960453177,-0.380215516148374,0.6291666666666667
71,1469.344337,3.6078287,1,72,2,2,1,1,1,2,-43.84615385,n/a,n/a,1399961.0,1403570.0,0.0,0.0,0.0,1401561.0,1400577.0,1402570.0,1400578.0,1400970.0,1402577.0,1403570.0,3609.0,617.0,392.0,993.0,1993.0,-1402577.0,0.0,0.0,0.0,1.0,0.0,0.0,0.0,0.4430761138333289,8.051523756065048,-0.1211536248763013,-0.8065369884622328,1401546.0,1401622.0,76.0,400.38429976467086,7.6392555841300265,7.74079237707183,0.08983940822502721,576.0,0.09090280217572402,0.0,0.0,0.0,0.0,0.0,0.0,0.0,0.0,0.0,0.0,0.0,0.0,0.0,9.959422004394089,0.04224616846093176,0.48333333333333334
72,1472.968826,3.5078343,1,73,2,1,2,2,2,1,-43.84615385,n/a,n/a,1403587.0,1407094.0,0.0,0.0,0.0,1405027.0,1404104.0,1406095.0,1404104.0,1404694.0,1406102.0,1407094.0,3507.0,517.0,590.0,992.0,1991.0,-1406102.0,0.0,0.0,0.0,1.0,0.0,0.0,0.0,0.4707683709479144,-8.234984959449164,-0.23538418547395523,0.1869227355234355,1405010.0,1405066.0,56.0,418.87757128826996,8.715990143709556,9.521690888377956,-3.0931217027269935,316.0,-3.0830289620332465,1.0,0.6507680421927026,-0.713075620700517,0.20769192835937367,0.4776914352265578,1406345.0,1406380.0,35.0,129.79719842786116,1.3903126520759699,1.4508940835838942,-2.946150216256392,-2.8462510523294413,-9.878266013182273,-0.12673850538279136,0.45416666666666666
73,1476.484989,3.5078375,1,74,2,1,2,1,2,1,-43.84615385,n/a,n/a,1407101.0,1410610.0,0.0,0.0,0.0,1408612.0,1407618.0,1409611.0,1407618.0,1408212.0,1409618.0,1410610.0,3509.0,517.0,594.0,992.0,1993.0,-1409618.0,0.0,0.0,0.0,1.0,0.0,0.0,0.0,0.5538451422916632,-9.996904818364518,-0.1765381391054684,0.24923031403124998,1408591.0,1408667.0,76.0,536.6965768235033,10.559337266513122,10.70974660968081,-3.101260206802002,379.0,-3.074637492929264,0.0,0.0,0.0,0.0,0.0,0.0,0.0,0.0,0.0,0.0,0.0,0.0,0.0,-9.971015717424349,-0.03017583461494957,0.4875
74,1480.001159,3.5078489,1,75,2,2,1,1,1,2,-43.84615385,n/a,n/a,1410618.0,1414127.0,0.0,0.0,0.0,1411911.0,1411134.0,1413127.0,1411134.0,1411527.0,1413134.0,1414127.0,3509.0,516.0,393.0,993.0,1993.0,-1413134.0,0.0,0.0,0.0,1.0,0.0,0.0,0.0,0.4361530495546855,8.691907201839784,-0.2284611211953118,-0.6299988493567683,1411877.0,1411949.0,72.0,432.37486366465157,8.265513242994032,9.246664013096709,0.048599018945088925,350.0,0.04943495301195378,0.0,0.0,0.0,0.0,0.0,0.0,0.0,0.0,0.0,0.0,0.0,0.0,0.0,9.64639175257708,0.3681451823023958,0.37083333333333335
75,1483.517361,3.5078246,1,76,2,2,1,2,1,2,-43.84615385,n/a,n/a,1414134.0,1417643.0,0.0,0.0,0.0,1415534.0,1414650.0,1416644.0,1414650.0,1415043.0,1416650.0,1417643.0,3509.0,516.0,393.0,993.0,1994.0,-1416650.0,0.0,0.0,0.0,1.0,0.0,0.0,0.0,0.7303832813971315,9.443059676072854,-0.38423006746484206,-1.007305852542963,1415521.0,1415586.0,65.0,404.7682612488825,8.73492721161947,9.269608859330255,0.07139216747863343,478.0,0.07175976082213252,0.0,0.0,0.0,0.0,0.0,0.0,0.0,0.0,0.0,0.0,0.0,0.0,0.0,9.831891161061238,0.17501984076671223,0.4375
76,1487.03352,3.5079199,1,77,2,2,2,1,5,2,-43.84615385,n/a,n/a,1417650.0,1421159.0,0.0,0.0,0.0,1419609.0,1418166.0,1420160.0,1418166.0,1419359.0,1420166.0,1421160.0,3509.0,516.0,1193.0,994.0,1994.0,-1420166.0,0.0,0.0,0.0,1.0,0.0,0.0,0.0,0.4880760316445289,9.477674997466083,-0.1107690284583342,0.5607682065703105,1419584.0,1419664.0,80.0,409.33420514244693,9.01464651688184,9.37142623284321,-0.07456308908954623,225.0,-0.08728231251158321,0.0,0.0,0.0,0.0,0.0,0.0,0.0,0.0,0.0,0.0,0.0,0.0,0.0,9.414517491971889,0.6095518592219963,0.7083333333333334
77,1490.549679,3.5078488,1,78,2,2,2,2,3,2,-43.84615385,n/a,n/a,1421166.0,1424676.0,0.0,0.0,0.0,1422732.0,1421683.0,1423675.0,1421683.0,1422476.0,1423682.0,1424676.0,3510.0,517.0,793.0,994.0,1992.0,-1423682.0,0.0,0.0,0.0,1.0,0.0,0.0,0.0,0.4949990959231723,9.98305868980723,-0.1869227355234355,-0.1488458819908829,1422720.0,1422768.0,48.0,412.17475162237326,9.488135997332154,9.415205158241076,-0.00401311234878177,244.0,0.026474136850256902,1.0,9.661136200850194,10.02113554333978,-0.17999967124479208,-0.08999983562239604,1422785.0,1422804.0,19.0,40.0119443468768,0.37107882855936586,0.3766554184643244,-0.24497866312686414,0.2984989315861708,9.947828291363829,0.054316502306910014,0.5166666666666667
78,1494.065851,3.5079401,1,79,2,2,1,2,5,1,-43.84615385,n/a,n/a,1424682.0,1428192.0,0.0,0.0,0.0,1426599.0,1425199.0,1427191.0,1425199.0,1426392.0,1427198.0,1428192.0,3510.0,517.0,1193.0,994.0,1992.0,-1427198.0,0.0,0.0,0.0,1.0,0.0,0.0,0.0,0.21807652477734077,9.11421412283718,-0.3011532961210934,-0.9207675490598907,1426584.0,1426637.0,53.0,387.9387731068664,8.917689498186107,9.045698808578706,0.06953750618112772,192.0,0.06893547512292528,1.0,5.7184510941614235,3.624224149871072,-1.2738438272708235,-1.4226897092617103,1427528.0,1427574.0,46.0,80.60614447135099,2.0995098453632806,2.1140781503340005,3.070637590998301,-3.0662021503651165,10.539107655907069,-0.5612705238380754,0.6916666666666667
79,1497.58207,3.5078149,1,80,2,1,2,1,2,1,-43.84615385,n/a,n/a,1428198.0,1431707.0,0.0,0.0,0.0,1429615.0,1428715.0,1430708.0,1428715.0,1429308.0,1430715.0,1431707.0,3509.0,517.0,593.0,992.0,1993.0,-1430715.0,0.0,0.0,0.0,1.0,0.0,0.0,0.0,0.19384579980208289,-8.726522523233017,-0.14192281771223947,0.44999917811197626,1429597.0,1429632.0,35.0,489.25334660178027,8.939985607804331,8.921447551919128,-3.075333561045049,289.0,-3.066249162729334,1.0,-8.709214862536403,-8.830368487412704,0.46384530666926704,0.26307644258854074,1429634.0,1429679.0,45.0,80.39941930417663,0.23449165785787068,0.7621190150674501,2.113747467226493,2.793985793833892,-9.843484874091494,-0.16294950692073004,0.44166666666666665
80,1501.09822,3.5078446,1,81,2,2,1,1,5,1,-43.84615385,n/a,n/a,1431714.0,1435224.0,0.0,0.0,0.0,1433657.0,1432231.0,1434224.0,1432231.0,1433424.0,1434231.0,1435224.0,3510.0,517.0,1193.0,993.0,1993.0,-1434231.0,0.0,0.0,0.0,1.0,0.0,0.0,0.0,0.5088452244804671,10.585365282049409,-0.38769159960416577,-1.2980745522460855,1433644.0,1433692.0,48.0,417.97353580568375,10.117561642562412,10.026069552831355,0.09010233553010885,220.0,0.092660384657115,1.0,10.100750782544205,10.557673024934829,-1.3292283414999906,-1.3049976165247328,1433711.0,1433735.0,24.0,38.92406997002535,0.4575642726700833,0.46370320709138785,-0.052980675904097795,0.11972539799305192,10.585482508028107,-0.6095518592219963,0.7083333333333334
81,1504.614383,3.5078661,1,82,2,2,1,2,3,2,-43.84615385,n/a,n/a,1435231.0,1438740.0,0.0,0.0,0.0,1436897.0,1435747.0,1437740.0,1435747.0,1436540.0,1437747.0,1438740.0,3509.0,516.0,793.0,993.0,1993.0,-1437747.0,0.0,0.0,0.0,1.0,0.0,0.0,0.0,0.4846144995052052,10.20459674672389,-0.5019221602018197,-1.550766398416655,1436886.0,1436958.0,72.0,513.8804800803225,9.776406759248658,10.213293838799807,0.10749007633839029,346.0,0.11207948236026896,1.0,2.921533125588526,2.7588411150403482,-0.917306016920567,-0.4880760316445289,1437763.0,1437806.0,43.0,73.92710411477826,0.4590283984202679,0.9143688089306313,-1.9330974325300387,2.1293956421384594,10.202889978029539,-0.21123084230465092,0.5708333333333333
82,1508.130569,3.5078553,1,83,2,2,1,2,2,2,-43.84615385,n/a,n/a,1438747.0,1442256.0,0.0,0.0,0.0,1440106.0,1439263.0,1441257.0,1439263.0,1439856.0,1441263.0,1442256.0,3509.0,516.0,593.0,993.0,1994.0,-1441263.0,0.0,0.0,0.0,1.0,0.0,0.0,0.0,0.4119223245794236,8.833830019552028,-0.20769192835937367,-0.6334603814960881,1440088.0,1440135.0,47.0,419.46198727309,8.432663161678237,8.43870491332329,0.050511867161645414,232.0,-0.056226621797743875,1.0,8.373446245022084,8.819983890994733,-0.7269217492578078,-0.747690942093746,1440151.0,1440181.0,30.0,31.239142261124496,0.447020389514674,0.4325253319589323,0.04647813135100519,0.21780089053642554,9.762328882879679,0.24744184384259355,0.4125
83,1511.646742,3.5078361,1,84,2,1,1,2,1,1,-43.84615385,n/a,n/a,1442263.0,1445772.0,0.0,0.0,0.0,1443723.0,1442779.0,1444772.0,1442780.0,1443173.0,1444779.0,1445773.0,3509.0,517.0,393.0,994.0,1993.0,-1444779.0,0.0,0.0,0.0,1.0,0.0,0.0,0.0,0.6680757028893171,-8.51536906273432,-0.4084607924401,-0.782306263486975,1443703.0,1443775.0,72.0,511.21672163604813,9.191050984489339,9.441045732756077,3.1009064868681344,530.0,3.072975812127961,1.0,-0.5642297387096302,-0.7649986027903605,-0.1903842676627592,-0.2561533783098934,1444648.0,1444673.0,25.0,72.11525290255929,0.21126692287147486,0.46854877596487166,2.825023399977397,-2.833859872555092,-10.098546560757203,0.1025978376908309,0.4625
84,1515.162911,3.5078305,1,85,2,2,2,2,3,1,-43.84615385,n/a,n/a,1445779.0,1449289.0,0.0,0.0,0.0,1447379.0,1446296.0,1448288.0,1446296.0,1447089.0,1448295.0,1449289.0,3510.0,517.0,793.0,994.0,1992.0,-1448295.0,0.0,0.0,0.0,1.0,0.0,0.0,0.0,0.21807652477734077,7.6326783672069825,-0.28384563542447894,-0.06576911064713421,1447363.0,1447419.0,56.0,411.55936636914,7.417808156889742,8.324541476865,-0.029403288204005427,274.0,-0.06366384864918927,1.0,7.625755302928335,8.148446655966097,-0.05884604636849078,-0.044999917811196055,1447421.0,1447445.0,24.0,46.73068388085855,0.5228747133075679,0.5240764231630589,-0.026483872597736397,-0.07271922855325484,9.90145343924279,0.1025978376908309,0.5333333333333333
85,1518.679076,3.5078241,1,86,2,2,2,2,1,2,-43.84615385,n/a,n/a,1449295.0,1452804.0,0.0,0.0,0.0,1450671.0,1449812.0,1451805.0,1449812.0,1450205.0,1451811.0,1452804.0,3509.0,517.0,393.0,993.0,1993.0,-1451811.0,0.0,0.0,0.0,1.0,0.0,0.0,0.0,0.3807685353255184,9.200752426320252,-0.27346103900650787,-0.4430761138333289,1450658.0,1450702.0,44.0,396.38741623100907,8.821614654416452,8.826910348931687,0.01922839909970712,453.0,0.0396181912219146,1.0,9.200752426320252,9.17306016920567,-0.45346071025129997,-0.4292299852760381,1450705.0,1450732.0,27.0,47.87062417325437,0.03679659137646954,0.3546677113608364,-2.422762653968108,2.8136693380883755,10.202889978029539,-0.21123084230465092,0.425
86,1522.195237,3.5078599,1,87,2,1,2,2,4,1,-43.84615385,n/a,n/a,1452811.0,1456320.0,0.0,0.0,0.0,1454521.0,1453328.0,1455321.0,1453328.0,1454321.0,1455328.0,1456320.0,3509.0,517.0,993.0,992.0,1993.0,-1455328.0,0.0,0.0,0.0,1.0,0.0,0.0,0.0,0.10384596417968683,-9.896520386324154,-0.328845553235675,0.48115296736588153,1454504.0,1454553.0,49.0,473.50257799709345,10.03311640257733,10.041405957696162,-3.060772201443987,183.0,-3.0511512364707754,0.0,0.0,0.0,0.0,0.0,0.0,0.0,0.0,0.0,0.0,0.0,0.0,0.0,-10.249264830150578,0.2595121776885718,0.5875
87,1525.711393,3.5078602,1,88,2,1,1,1,2,1,-43.84615385,n/a,n/a,1456327.0,1459837.0,0.0,0.0,0.0,1457871.0,1456844.0,1458837.0,1456844.0,1457437.0,1458844.0,1459837.0,3510.0,517.0,593.0,993.0,1993.0,-1458844.0,0.0,0.0,0.0,1.0,0.0,0.0,0.0,0.6057681243815065,-8.120754398851512,-0.46384530666926704,-1.2530746344348893,1457847.0,1457907.0,60.0,529.6147315439921,8.762138910123403,9.902190516913265,3.0513977329137147,410.0,3.0439066761590152,1.0,-2.3365341940429536,-2.3746110475755065,-0.22499958905598813,-0.21807652477734077,1458760.0,1458793.0,33.0,41.058855813831855,0.038701105849132375,0.36081387809472915,-2.9617391537972786,2.6521996613619394,-9.994203143484869,-0.006035166922989127,0.5
88,1529.227578,3.5078399,1,89,2,2,1,1,5,2,-43.84615385,n/a,n/a,1459844.0,1463353.0,0.0,0.0,0.0,1461777.0,1460360.0,1462353.0,1460360.0,1461553.0,1462360.0,1463353.0,3509.0,516.0,1193.0,993.0,1993.0,-1462360.0,0.0,0.0,0.0,1.0,0.0,0.0,0.0,0.5746143351276013,9.190367829902284,-0.4603837745299434,-1.540381801998688,1461760.0,1461821.0,61.0,447.1949576444759,8.683179372905903,9.198536283978468,0.12470111795066112,207.0,0.12981610530442522,1.0,9.190367829902284,9.64036700801426,-1.5334587377200406,-1.585381719809884,1461824.0,1461844.0,20.0,45.59144311573868,0.45298483017707813,0.40653480802797165,0.11487660541689913,0.27596048198503903,10.562295081967589,-0.5854111915300358,0.7
89,1532.743749,3.5078604,1,90,2,1,2,2,5,2,-43.84615385,n/a,n/a,1463360.0,1466869.0,0.0,0.0,0.0,1465336.0,1463876.0,1465870.0,1463876.0,1465069.0,1465876.0,1466869.0,3509.0,516.0,1193.0,993.0,1994.0,-1465876.0,0.0,0.0,0.0,1.0,0.0,0.0,0.0,0.39807619602213284,-8.245369555867136,-0.36692240676822757,0.3946146638828092,1465311.0,1465373.0,62.0,419.4734927247428,8.676928787066794,9.224453839919935,-3.0537138478165513,242.0,-3.0472635567903525,1.0,0.39807619602213284,-8.245369555867136,-0.36692240676822757,0.3946146638828092,1465311.0,1465373.0,62.0,419.4734927247428,8.676928787066794,9.224453839919935,-3.0537138478165513,-3.0472635567903525,-10.608669934088628,0.6336925269139567,0.7166666666666667
90,1536.259946,3.5078207,1,91,2,1,1,2,3,1,-43.84615385,n/a,n/a,1466876.0,1470385.0,0.0,0.0,0.0,1468709.0,1467393.0,1469385.0,1467393.0,1468186.0,1469392.0,1470386.0,3509.0,517.0,793.0,994.0,1992.0,-1469392.0,0.0,0.0,0.0,1.0,0.0,0.0,0.0,0.5088452244804671,-7.916524002631461,-0.418845388858071,-0.5919219958242157,1468688.0,1468748.0,60.0,443.8030552318051,8.427146736888089,8.82696464728717,3.121053225213892,502.0,3.11335379106256,0.0,0.0,0.0,0.0,0.0,0.0,0.0,0.0,0.0,0.0,0.0,0.0,0.0,-9.588423187425784,-0.42849685153229494,0.6458333333333334
91,1539.776117,3.507863,1,92,2,2,1,1,2,1,-43.84615385,n/a,n/a,1470392.0,1473902.0,0.0,0.0,0.0,1472152.0,1470909.0,1472901.0,1470909.0,1471502.0,1472908.0,1473902.0,3510.0,517.0,593.0,994.0,1992.0,-1472908.0,0.0,0.0,0.0,1.0,0.0,0.0,0.0,0.32192248895702763,10.502288510705664,-0.4430761138333289,-1.2669207629921801,1472129.0,1472174.0,45.0,473.96909349620927,10.213646378386215,10.213926172358422,0.08074889195486291,627.0,0.08108669085988636,1.0,1.176920927369784,1.121536413140617,-0.3773070031861947,-0.8342292455768183,1473311.0,1473332.0,21.0,45.13285729671986,0.4602666401203509,0.4810657985886468,1.6914199953750007,1.81053943566535,10.307233395301878,-0.3198638469184749,0.6083333333333333
92,1543.292311,3.5078423,1,93,2,1,2,1,5,2,-43.84615385,n/a,n/a,1473908.0,1477417.0,0.0,0.0,0.0,1476075.0,1474425.0,1476418.0,1474425.0,1475618.0,1476424.0,1477417.0,3509.0,517.0,1193.0,993.0,1993.0,-1476424.0,0.0,0.0,0.0,1.0,0.0,0.0,0.0,0.35653781035025656,-9.97267409338926,-0.41538385671874734,1.3776897914505124,1476055.0,1476121.0,66.0,493.9133185928586,10.483688838386664,10.514858990717249,-2.969712995427032,437.0,-2.971897814931084,0.0,0.0,0.0,0.0,0.0,0.0,0.0,0.0,0.0,0.0,0.0,0.0,0.0,-10.886919046814858,0.9233805392174821,0.8166666666666667
93,1546.808461,3.6494718,1,94,2,2,2,1,2,2,-43.84615385,n/a,n/a,1477424.0,1481075.0,0.0,0.0,0.0,1479000.0,1478084.0,1480076.0,1478084.0,1478674.0,1480082.0,1481075.0,3651.0,660.0,590.0,993.0,1992.0,-1480082.0,0.0,0.0,0.0,1.0,0.0,0.0,0.0,0.4569222423906236,9.048445012190049,-0.09346136776171972,-0.2007688640807263,1478984.0,1479063.0,79.0,421.7335504627797,8.592192875090051,8.933500255721825,0.012489278069520016,310.0,0.024801115282327216,0.0,0.0,0.0,0.0,0.0,0.0,0.0,0.0,0.0,0.0,0.0,0.0,0.0,10.133327699847987,-0.1388088392287696,0.45
94,1550.466265,3.5078688,1,95,2,1,1,1,5,1,-43.84615385,n/a,n/a,1481082.0,1484592.0,0.0,0.0,0.0,1483109.0,1481599.0,1483591.0,1481599.0,1482792.0,1483598.0,1484592.0,3510.0,517.0,1193.0,994.0,1992.0,-1483598.0,0.0,0.0,0.0,1.0,0.0,0.0,0.0,0.5642297387096302,-9.283829197664005,-0.33923014965364207,-1.415766644983063,1483086.0,1483164.0,78.0,640.3252311768197,9.90672476856326,10.372766239528847,3.032710395824309,294.0,3.021501054710814,1.0,-2.014611705085926,0.6923064278645789,-0.5226913530377578,0.020769192835938154,1483885.0,1483930.0,45.0,315.08869757933365,2.760933744843868,3.923021737331092,-0.19813320417146488,-0.3437955452058435,-9.32176778772981,-0.706114529989838,0.7416666666666667
95,1553.982468,3.5078721,1,96,2,1,1,1,3,1,-43.84615385,n/a,n/a,1484598.0,1488108.0,0.0,0.0,0.0,1486375.0,1485115.0,1487107.0,1485115.0,1485908.0,1487115.0,1488108.0,3510.0,517.0,793.0,993.0,1992.0,-1487115.0,0.0,0.0,0.0,1.0,0.0,0.0,0.0,0.6334603814960881,-7.95460085616401,-0.6126911886601539,-1.2980745522460855,1486355.0,1486403.0,48.0,594.826750306123,8.615366862582245,9.436946722839227,3.061954910870334,447.0,3.054917867503491,0.0,0.0,0.0,0.0,0.0,0.0,0.0,0.0,0.0,0.0,0.0,0.0,0.0,-9.65798546560734,-0.3560748484564136,0.6208333333333333
96,1557.498673,3.5078602,1,97,2,2,2,1,3,1,-43.84615385,n/a,n/a,1488114.0,1491624.0,0.0,0.0,0.0,1489640.0,1488631.0,1490624.0,1488631.0,1489424.0,1490631.0,1491624.0,3510.0,517.0,793.0,993.0,1993.0,-1490631.0,0.0,0.0,0.0,1.0,0.0,0.0,0.0,0.7303832813971315,9.148829444230408,-0.24923031403124998,-0.1488458819908829,1489626.0,1489681.0,55.0,415.07324435738,8.419044650714142,9.322683031878729,-0.011923776979667651,202.0,-0.06800068601267593,1.0,0.7303832813971315,9.148829444230408,-0.24923031403124998,-0.1488458819908829,1489626.0,1489681.0,55.0,415.07324435738,8.419044650714142,9.322683031878729,-0.011923776979667651,-0.06800068601267593,10.00579685651513,-0.006035166922989127,0.49583333333333335
97,1561.014815,3.5078174,1,98,2,2,1,1,4,2,-43.84615385,n/a,n/a,1491630.0,1495140.0,0.0,0.0,0.0,1493330.0,1492147.0,1494140.0,1492148.0,1493141.0,1494147.0,1495140.0,3510.0,518.0,993.0,993.0,1993.0,-1494147.0,0.0,0.0,0.0,1.0,0.0,0.0,0.0,0.8861522276666618,9.443059676072854,0.010384596417967108,-1.1492286702552026,1493319.0,1493405.0,86.0,420.754970655405,8.63512408763382,8.82634562623309,0.13469722436798826,178.0,0.13097064935511188,1.0,0.23538418547395523,0.3115378925390605,-0.3011532961210934,-0.33230708537499865,1494354.0,1494376.0,22.0,58.6136875950534,0.08227967965806991,0.3750294913388482,0.3883187181724499,2.9840310840041306,10.249264830150578,-0.2595121776885718,0.5875
98,1564.530962,3.5078913,1,99,2,2,2,1,2,1,-43.84615385,n/a,n/a,1495147.0,1498656.0,0.0,0.0,0.0,1496780.0,1495663.0,1497657.0,1495663.0,1496256.0,1497663.0,1498656.0,3509.0,516.0,593.0,993.0,1994.0,-1497663.0,0.0,0.0,0.0,1.0,0.0,0.0,0.0,0.5607682065703105,8.972291305124944,-0.22499958905598813,-0.08653830348307236,1496762.0,1496819.0,57.0,396.37230168308326,8.412662620426463,9.308226625650766,-0.016459418834779648,506.0,-0.04761848021827856,1.0,1.6269201054817604,0.46384530666926704,-1.5057664806054591,-0.15923047840885393,1497731.0,1497787.0,56.0,369.81016699116515,1.7792982304392757,5.470768391836895,-2.2832208503341804,1.3526764166217409,9.85507858712175,0.1508791730747518,0.55
99,1568.047185,3.5078392,1,100,2,2,1,2,4,2,-43.84615385,n/a,n/a,1498663.0,1502172.0,0.0,0.0,0.0,1500396.0,1499179.0,1501173.0,1499180.0,1500172.0,1501179.0,1502172.0,3509.0,517.0,992.0,993.0,1994.0,-1501179.0,0.0,0.0,0.0,1.0,0.0,0.0,0.0,0.6126911886601539,9.083060333583278,-0.079615239204425,-1.211536248763013,1500383.0,1500456.0,73.0,454.1611369013053,8.545665487435476,8.920227953242838,0.132845972717513,211.0,0.12762799017552334,1.0,0.6126911886601539,9.083060333583278,-0.079615239204425,-1.211536248763013,1500383.0,1500456.0,73.0,454.1611369013053,8.545665487435476,8.920227953242838,0.132845972717513,0.12762799017552334,10.284045969241358,-0.2957231792265144,0.6
100,1728.024747,3.9743842,2,1,2,2,2,2,4,2,-43.84615385,n/a,n/a,1658641.0,1662615.0,0.0,0.0,0.0,1661357.0,1659624.0,1661615.0,1659624.0,1660614.0,1661622.0,1662616.0,3974.0,983.0,990.0,994.0,1991.0,-1661622.0,0.0,0.0,0.0,1.0,0.0,0.0,0.0,0.1384612855729158,8.86152227666661,-0.05192298208984342,1.7861505838906142,1661341.0,1661418.0,77.0,518.5835865925112,8.914612021187272,9.687445106726488,-0.20767621203441114,727.0,-0.20146000838652883,0.0,0.0,0.0,0.0,0.0,0.0,0.0,0.0,0.0,0.0,0.0,0.0,0.0,8.99714382288254,1.0440838776772823,0.8583333333333333
101,1732.007465,3.5078266,2,2,2,1,2,2,4,1,-43.84615385,n/a,n/a,1662622.0,1666131.0,0.0,0.0,0.0,1664365.0,1663139.0,1665131.0,1663139.0,1664131.0,1665138.0,1666131.0,3509.0,517.0,992.0,993.0,1992.0,-1665138.0,0.0,0.0,0.0,1.0,0.0,0.0,0.0,0.09692289990103947,-10.592288346328056,-0.10730749631901051,0.24576878189192627,1664347.0,1664416.0,69.0,561.3958219191306,10.695040903369463,11.221776816292909,-3.1085735705358246,216.0,-3.0928357730480065,0.0,0.0,0.0,0.0,0.0,0.0,0.0,0.0,0.0,0.0,0.0,0.0,0.0,-10.295639682271618,0.3077935130724927,0.6041666666666666
102,1735.523647,3.507819,2,3,2,2,2,1,4,2,-43.84615385,n/a,n/a,1666138.0,1669647.0,0.0,0.0,0.0,1667898.0,1666654.0,1668647.0,1666655.0,1667648.0,1668654.0,1669647.0,3509.0,517.0,993.0,993.0,1993.0,-1668654.0,0.0,0.0,0.0,1.0,0.0,0.0,0.0,0.06576911064713421,9.003445094378845,-0.16615354268749735,0.33923014965364207,1667876.0,1667934.0,58.0,469.0574738505911,8.951953120222367,9.522858622590103,-0.056485163584549684,228.0,-0.08114890198613625,0.0,0.0,0.0,0.0,0.0,0.0,0.0,0.0,0.0,0.0,0.0,0.0,0.0,9.68117289166786,0.33193418076445314,0.6125
103,1739.039797,3.5078406,2,4,2,1,2,1,3,1,-43.84615385,n/a,n/a,1669654.0,1673163.0,0.0,0.0,0.0,1671230.0,1670171.0,1672164.0,1670171.0,1670963.0,1672170.0,1673163.0,3509.0,517.0,792.0,993.0,1993.0,-1672170.0,0.0,0.0,0.0,1.0,0.0,0.0,0.0,0.14192281771223947,-9.848058936373635,-0.1903842676627592,0.07615370706510526,1671209.0,1671282.0,73.0,536.0015449299592,9.993536808304691,10.843317800451581,-3.1149184550554576,246.0,-3.077063049803282,0.0,0.0,0.0,0.0,0.0,0.0,0.0,0.0,0.0,0.0,0.0,0.0,0.0,-10.063765421666428,0.0663868361528922,0.5208333333333334
104,1742.555972,3.5161735,2,5,2,2,2,2,5,2,-43.84615385,n/a,n/a,1673170.0,1676689.0,0.0,0.0,0.0,1675055.0,1673695.0,1675688.0,1673696.0,1674888.0,1675695.0,1676689.0,3519.0,526.0,1192.0,994.0,1993.0,-1675695.0,0.0,0.0,0.0,1.0,0.0,0.0,0.0,0.3703839389075513,8.961906708706977,-0.08999983562239604,1.1353825416979098,1675028.0,1675106.0,78.0,428.8281229518874,8.67846907436036,9.169475803468579,-0.1416714228390399,140.0,-0.1428046407091393,0.0,0.0,0.0,0.0,0.0,0.0,0.0,0.0,0.0,0.0,0.0,0.0,0.0,9.53045462227448,0.48884852076219404,0.6666666666666666
105,1746.080489,3.507849,2,6,2,2,1,1,5,2,-43.84615385,n/a,n/a,1676695.0,1680204.0,0.0,0.0,0.0,1678655.0,1677211.0,1679204.0,1677212.0,1678405.0,1679211.0,1680204.0,3509.0,517.0,1193.0,993.0,1993.0,-1679211.0,0.0,0.0,0.0,1.0,0.0,0.0,0.0,0.2769225711458316,9.917289579160093,-0.1903842676627592,-2.319226533346339,1678636.0,1678709.0,73.0,388.88695585331874,9.87262100160695,10.486889147355695,0.21733789512930574,231.0,0.21623437977705776,0.0,0.0,0.0,0.0,0.0,0.0,0.0,0.0,0.0,0.0,0.0,0.0,0.0,10.597076221058368,-0.6216221930679785,0.7125
106,1749.596669,3.507846,2,7,2,1,1,1,2,1,-43.84615385,n/a,n/a,1680211.0,1683720.0,0.0,0.0,0.0,1681861.0,1680727.0,1682721.0,1680727.0,1681320.0,1682727.0,1683720.0,3509.0,516.0,593.0,993.0,1994.0,-1682727.0,0.0,0.0,0.0,1.0,0.0,0.0,0.0,0.22153805691666445,-8.740368651790309,-0.10384596417968683,-0.43269151741536177,1681844.0,1681925.0,81.0,443.1001515989159,8.96793795994653,8.976735976024724,3.104915404641483,524.0,3.084104888706246,1.0,-2.367687983296859,-2.0353808979218604,-0.1869227355234355,-0.20769192835937367,1682637.0,1682663.0,26.0,35.77381773408338,0.33295549006058306,0.3348931717348865,0.062418809995959564,0.12435499454676581,-9.831891161061234,-0.17501984076671223,0.5583333333333333
107,1753.112851,3.507829,2,8,2,1,2,1,5,1,-43.84615385,n/a,n/a,1683727.0,1687237.0,0.0,0.0,0.0,1685660.0,1684244.0,1686236.0,1684244.0,1685436.0,1686244.0,1687237.0,3510.0,517.0,1192.0,993.0,1992.0,-1686244.0,0.0,0.0,0.0,1.0,0.0,0.0,0.0,0.27346103900650787,-10.003827882643165,-0.1384612855729158,0.7096140885611933,1685644.0,1685718.0,74.0,479.93393779926294,10.31222087715715,10.320327466481038,-3.0592598289625963,208.0,-3.0502343364519016,1.0,-10.585365282049409,-0.10384596417968683,1.0453827060755136,0.9346136776171815,1686504.0,1686560.0,56.0,410.4004468423735,10.48210460683072,10.509218986035352,0.010567638306258701,-0.02569450867949056,-10.562295081967589,0.5854111915300358,0.7
108,1756.629201,3.5077038,2,9,2,2,1,2,3,1,-43.84615385,n/a,n/a,1687243.0,1690753.0,0.0,0.0,0.0,1688886.0,1687760.0,1689752.0,1687760.0,1688553.0,1689760.0,1690753.0,3510.0,517.0,793.0,993.0,1992.0,-1689760.0,0.0,0.0,0.0,1.0,0.0,0.0,0.0,0.2319226533346355,9.605751686621032,-0.19730733194140657,-0.9138444847812434,1688862.0,1688925.0,63.0,452.36904294015096,9.401175258268658,9.86718707355012,0.07629181449436953,309.0,0.07268215461393299,1.0,9.609213218760353,10.028058607618426,-0.9138444847812434,-0.9657674668710867,1688929.0,1688951.0,22.0,35.922373027674084,0.42205148481763954,0.43356294599811157,0.12333770089972257,2.799642826612093,10.144921412878247,-0.1508791730747518,0.55
109,1760.145233,3.5078165,2,10,2,2,2,2,2,1,-43.84615385,n/a,n/a,1690759.0,1694269.0,0.0,0.0,0.0,1692419.0,1691276.0,1693268.0,1691276.0,1691869.0,1693276.0,1694269.0,3510.0,517.0,593.0,993.0,1992.0,-1693276.0,0.0,0.0,0.0,1.0,0.0,0.0,0.0,0.2526918461705697,8.615753494774687,-0.044999917811196055,0.29076869970312236,1692399.0,1692436.0,37.0,414.61592069958004,8.369799322735313,8.321512463636115,-0.040127454829681865,530.0,-0.04993762297578868,1.0,8.619215026914008,8.311138666514266,0.28730716756379865,0.23538418547395523,1692438.0,1692466.0,28.0,83.01464887147412,0.312421253928495,0.6435843797452763,2.974622484564866,-0.2058341781041223,9.820297448030978,0.18709017461269048,0.5625
110,1763.66138,3.5078409,2,11,2,2,1,1,1,2,-43.84615385,n/a,n/a,1694275.0,1697784.0,0.0,0.0,0.0,1695851.0,1694792.0,1696785.0,1694792.0,1695186.0,1696792.0,1697784.0,3509.0,517.0,394.0,992.0,1993.0,-1696792.0,0.0,0.0,0.0,1.0,0.0,0.0,0.0,0.35653781035025656,7.636139899346301,-0.3011532961210934,-1.6892276839895708,1695837.0,1695888.0,51.0,368.7754889063259,7.41075954814161,7.416913210329161,0.18841815354223382,651.0,0.18778487177722994,1.0,7.715755138550735,7.888831745516879,-1.7757659874726432,-1.754996794636709,1695932.0,1695958.0,26.0,27.98517850797515,0.17431830440309345,0.14706420222669728,-0.11942892601832052,0.4636476090008061,10.063765421666428,-0.0663868361528922,0.5208333333333334
111,1767.177556,3.6744533,2,12,2,1,1,1,1,1,-43.84615385,n/a,n/a,1697791.0,1701468.0,0.0,0.0,0.0,1699235.0,1698475.0,1700468.0,1698475.0,1698868.0,1700474.0,1701468.0,3677.0,684.0,393.0,994.0,1993.0,-1700474.0,0.0,0.0,0.0,1.0,0.0,0.0,0.0,0.0,-9.709597650800719,-0.03461532139322895,-0.18346120338411182,1699219.0,1699269.0,50.0,488.19910646416224,9.710738470220505,9.960796163312766,3.1262640859905786,351.0,-3.1085726707270567,1.0,-9.699213054382751,-10.228827471699153,-0.24576878189192627,-0.3807685353255184,1699276.0,1699297.0,21.0,48.3238923356943,0.5465495077817946,0.549784591511063,2.8920057281528093,2.78798037529579,-10.353608247422917,0.3681451823023958,0.37083333333333335
112,1770.860477,3.5077041,2,13,2,2,2,2,5,1,-43.84615385,n/a,n/a,1701474.0,1704984.0,0.0,0.0,0.0,1703141.0,1701991.0,1703983.0,1701991.0,1703184.0,1703990.0,1704984.0,3510.0,517.0,1193.0,994.0,1992.0,-1703990.0,0.0,0.0,0.0,1.0,0.0,0.0,0.0,0.48115296736588153,8.030754563229115,-0.06576911064713421,0.05192298208984342,1703124.0,1703182.0,58.0,372.44371813690657,7.550518901701623,8.252195336580192,-0.015587916619174153,-60.0,-0.04993744848802794,1.0,-1.914227273045559,-1.9799963836926973,-0.06576911064713421,-0.0553845142291671,1704512.0,1704534.0,22.0,29.309682920206722,0.06658390014169759,0.1876265374623198,-2.9849907766078085,-2.487021886266416,9.808703735000718,0.19916050845867267,0.5666666666666667
113,1774.376651,3.6077504,2,14,2,1,1,1,3,1,-43.84615385,n/a,n/a,1704991.0,1708600.0,0.0,0.0,0.0,1706617.0,1705607.0,1707600.0,1705607.0,1706400.0,1707607.0,1708600.0,3609.0,616.0,793.0,993.0,1993.0,-1707607.0,0.0,0.0,0.0,1.0,0.0,0.0,0.0,0.4257684531367144,-8.90998372661713,-0.4223069209973947,-0.9069214205025999,1706593.0,1706675.0,82.0,501.41029535944784,9.348321773179897,9.652639866756944,3.089729674371957,193.0,3.0680112460211135,1.0,-8.96882977298562,-9.003445094378849,-0.8549984384127565,-0.8619215026913999,1707106.0,1707125.0,19.0,56.20179986549298,0.03530083985067157,0.19999149847112066,2.944197093739978,-1.161359117268758,-10.017390569545388,0.018105500768971317,0.49166666666666664
114,1777.992731,3.5078325,2,15,2,1,1,1,3,2,-43.84615385,n/a,n/a,1708606.0,1712116.0,0.0,0.0,0.0,1710199.0,1709123.0,1711116.0,1709123.0,1709916.0,1711123.0,1712117.0,3510.0,517.0,793.0,994.0,1993.0,-1711123.0,0.0,0.0,0.0,1.0,0.0,0.0,0.0,0.4119223245794236,-9.88959732204551,-0.22153805691666445,-1.3880743878684814,1710178.0,1710258.0,80.0,493.34423480585184,10.367358103259964,10.395778646202274,3.0288337430948875,262.0,3.0254565389027737,1.0,0.4119223245794236,-9.88959732204551,-0.22153805691666445,-1.3880743878684814,1710178.0,1710258.0,80.0,493.34423480585184,10.367358103259964,10.395778646202274,3.0288337430948875,3.0254565389027737,-9.913047152273053,-0.09052750384485264,0.5291666666666667
115,1781.508894,3.5078548,2,16,2,1,2,2,1,1,-43.84615385,n/a,n/a,1712123.0,1715632.0,0.0,0.0,0.0,1713499.0,1712639.0,1714632.0,1712639.0,1713033.0,1714639.0,1715632.0,3509.0,516.0,394.0,993.0,1993.0,-1714639.0,0.0,0.0,0.0,1.0,0.0,0.0,0.0,0.2561533783098934,-8.588061237660101,-0.15923047840885393,0.24576878189192627,1713484.0,1713553.0,69.0,417.8612401623521,8.853482736990086,8.95223219348339,-3.0958320581513967,451.0,-3.078136699730302,1.0,-1.6823046197109275,-1.8138428410051959,0.031153789253905263,-0.006923064278647363,1714653.0,1714679.0,26.0,52.42694569017683,0.1369384914339259,0.44943965968958044,2.8598207863164324,2.932113089810702,-9.785516308940194,-0.2233011761506331,0.42083333333333334
116,1785.025174,3.5077276,2,17,2,1,2,2,3,1,-43.84615385,n/a,n/a,1715639.0,1719148.0,0.0,0.0,0.0,1717139.0,1716156.0,1718149.0,1716156.0,1716948.0,1718155.0,1719148.0,3509.0,517.0,792.0,993.0,1993.0,-1718155.0,0.0,0.0,0.0,1.0,0.0,0.0,0.0,0.4776914352265578,-8.404600034275987,-0.33230708537499865,-0.09692289990103947,1717112.0,1717172.0,60.0,491.8073294596191,8.885409808442654,10.322038682111716,-3.1150984647475886,164.0,-3.0902610234221592,1.0,-8.401138502136666,-9.287290729803324,-0.08307677134374868,-0.1211536248763013,1717174.0,1717200.0,26.0,107.3462609585266,0.8869699078173507,0.9232627177712511,3.09865031892743,-2.99863515399607,-9.947828291363829,-0.054316502306910014,0.4791666666666667
117,1788.541236,3.5078497,2,18,2,2,1,2,4,2,-43.84615385,n/a,n/a,1719155.0,1722664.0,0.0,0.0,0.0,1720538.0,1719671.0,1721665.0,1719671.0,1720664.0,1721671.0,1722664.0,3509.0,516.0,993.0,993.0,1994.0,-1721671.0,0.0,0.0,0.0,0.0,0.0,1.0,0.0,0.2596149104492171,7.9061394062134935,-0.14538434985156315,-1.2011516523450458,1720519.0,1720575.0,56.0,387.90874306748907,7.719066100334774,8.24761372418096,0.13720403984446217,-145.0,0.13174722805475625,0.0,0.0,0.0,0.0,0.0,0.0,0.0,0.0,0.0,0.0,0.0,0.0,0.0,0.0,0.0,0.0
118,1792.057421,3.5078367,2,19,2,1,2,1,2,2,-43.84615385,n/a,n/a,1722671.0,1726181.0,0.0,0.0,0.0,1724064.0,1723188.0,1725181.0,1723188.0,1723781.0,1725187.0,1726181.0,3510.0,517.0,593.0,994.0,1993.0,-1725187.0,0.0,0.0,0.0,1.0,0.0,0.0,0.0,0.33923014965364207,-8.785368569601504,-0.08653830348307236,0.7096140885611933,1724042.0,1724102.0,60.0,477.2554092660388,9.159266369027076,9.650195359421168,-3.0545596580339125,261.0,-3.0222207108752848,1.0,-1.2946130201067616,-1.0246135132395775,0.4707683709479144,0.3461532139322894,1725055.0,1725076.0,21.0,28.292717176135216,0.2973695866536313,0.32372266333574823,0.43240777557054244,2.711425352239029,-9.797110021970454,-0.21123084230465092,0.425
119,1795.573608,3.5079419,2,20,2,2,1,2,1,1,-43.84615385,n/a,n/a,1726187.0,1729697.0,0.0,0.0,0.0,1727364.0,1726704.0,1728696.0,1726704.0,1727097.0,1728703.0,1729697.0,3510.0,517.0,393.0,994.0,1992.0,-1728703.0,0.0,0.0,0.0,1.0,0.0,0.0,0.0,0.3080763603997368,9.083060333583278,-0.20423039622005,-0.3599993424895802,1727344.0,1727404.0,60.0,393.1273834240712,8.776366428895841,9.160352769456148,0.017749615056497605,247.0,-0.04195720774773127,0.0,0.0,0.0,0.0,0.0,0.0,0.0,0.0,0.0,0.0,0.0,0.0,0.0,9.507267196213968,0.5129891884541545,0.32083333333333336
120,1799.089759,3.5078577,2,21,2,2,1,1,1,1,-43.84615385,n/a,n/a,1729703.0,1733213.0,0.0,0.0,0.0,1730879.0,1730220.0,1732213.0,1730220.0,1730613.0,1732220.0,1733213.0,3510.0,517.0,393.0,993.0,1993.0,-1732220.0,0.0,0.0,0.0,1.0,0.0,0.0,0.0,0.35653781035025656,8.819983890994733,-0.2526918461705697,-0.46730683880859075,1730864.0,1730907.0,43.0,351.97964882900123,8.466166733241282,8.471246860253947,0.02535244008545184,251.0,0.042918414078704496,1.0,8.816522358855414,8.726522523233013,-0.46730683880859075,-0.5123067566197868,1730909.0,1730940.0,31.0,79.09093853507427,0.10062287520774496,0.5290598293166549,2.677945044589022,3.0367157148595583,9.507267196213968,0.5129891884541545,0.32083333333333336
121,1802.605945,3.5078422,2,22,2,2,2,1,2,2,-43.84615385,n/a,n/a,1733220.0,1736729.0,0.0,0.0,0.0,1734779.0,1733736.0,1735729.0,1733736.0,1734330.0,1735736.0,1736729.0,3509.0,516.0,594.0,993.0,1993.0,-1735736.0,0.0,0.0,0.0,1.0,0.0,0.0,0.0,0.1488458819908829,9.373829033286396,-0.08307677134374868,-0.01384612855729079,1734757.0,1734835.0,78.0,376.2438453052703,9.225242924909171,9.329251040370798,-0.007504549547278653,427.0,-0.05531327051426462,0.0,0.0,0.0,0.0,0.0,0.0,0.0,0.0,0.0,0.0,0.0,0.0,0.0,9.959422004394089,0.04224616846093176,0.5125
122,1806.122256,3.5077202,2,23,2,1,1,2,5,2,-43.84615385,n/a,n/a,1736736.0,1740245.0,0.0,0.0,0.0,1738878.0,1737252.0,1739245.0,1737252.0,1738446.0,1739252.0,1740245.0,3509.0,516.0,1194.0,993.0,1993.0,-1739252.0,0.0,0.0,0.0,1.0,0.0,0.0,0.0,0.46730683880859075,-9.228444683434837,-0.4084607924401,-2.69307200439321,1738858.0,1738940.0,82.0,456.5217908351469,9.961277326270343,9.96719553396226,2.910183622793613,412.0,2.8917285845863363,1.0,0.46730683880859075,-9.228444683434837,-0.4084607924401,-2.69307200439321,1738858.0,1738940.0,82.0,456.5217908351469,9.961277326270343,9.96719553396226,2.910183622793613,2.8917285845863363,-9.147862092275915,-0.8871695376795394,0.8041666666666667
123,1809.638312,3.5078709,2,24,2,1,2,1,1,2,-43.84615385,n/a,n/a,1740252.0,1743761.0,0.0,0.0,0.0,1741845.0,1740768.0,1742762.0,1740768.0,1741161.0,1742768.0,1743761.0,3509.0,516.0,393.0,993.0,1994.0,-1742768.0,0.0,0.0,0.0,1.0,0.0,0.0,0.0,0.3461532139322894,-8.134600527408802,-0.0692306427864579,1.1596132666731696,1741827.0,1741866.0,39.0,469.6251580223533,8.56931977318427,8.5450814768841,-2.997696172915358,666.0,-2.99196157960369,1.0,-7.913062470492138,-8.363061648604114,0.9726905311497341,0.9692289990104104,1741883.0,1741903.0,20.0,45.987597661231945,0.4500124915001868,0.42935558701713833,3.1339004976141425,3.012237700709071,-10.086952847726943,0.09052750384485264,0.5291666666666667
124,1813.154442,3.5078427,2,25,2,1,1,2,2,2,-43.84615385,n/a,n/a,1743768.0,1747277.0,0.0,0.0,0.0,1745434.0,1744285.0,1746278.0,1744285.0,1744878.0,1746284.0,1747277.0,3509.0,517.0,593.0,993.0,1993.0,-1746284.0,0.0,0.0,0.0,1.0,0.0,0.0,0.0,0.3703839389075513,-9.26652153696739,-0.373845471046871,-1.1838439916484313,1745415.0,1745471.0,56.0,454.7331446267117,9.67088645132002,9.683128052900974,3.0577380278505535,537.0,3.0438448182859927,1.0,-9.193829362041608,-9.515751850998637,-1.2426900380169184,-1.2599976987135328,1745481.0,1745500.0,19.0,40.4504218350121,0.3223874129290359,0.3383459534211331,3.0878809242865604,2.9040580216941736,-9.808703735000714,-0.19916050845867267,0.5666666666666667
125,1816.670615,3.5078735,2,26,2,1,2,2,2,2,-43.84615385,n/a,n/a,1747284.0,1750794.0,0.0,0.0,0.0,1748844.0,1747801.0,1749794.0,1747801.0,1748394.0,1749801.0,1750794.0,3510.0,517.0,593.0,993.0,1993.0,-1749801.0,0.0,0.0,0.0,1.0,0.0,0.0,0.0,0.1903842676627592,-8.07229294890099,-0.2007688640807263,1.4053820485650959,1748826.0,1748876.0,50.0,396.11694664183824,8.417336606036063,8.421324350406085,-2.9496007027316016,432.0,-2.9471797531739656,1.0,0.1903842676627592,-8.07229294890099,-0.2007688640807263,1.4053820485650959,1748826.0,1748876.0,50.0,396.11694664183824,8.417336606036063,8.421324350406085,-2.9496007027316016,-2.9471797531739656,-10.040577995605908,0.04224616846093176,0.5125
126,1820.186808,3.5744562,2,27,2,1,1,2,3,1,-43.84615385,n/a,n/a,1750800.0,1754376.0,0.0,0.0,0.0,1752460.0,1751383.0,1753376.0,1751384.0,1752177.0,1753383.0,1754376.0,3576.0,584.0,793.0,993.0,1993.0,-1753383.0,0.0,0.0,0.0,1.0,0.0,0.0,0.0,-0.020769192835938154,-9.069214205025983,-0.14192281771223947,-0.45346071025129997,1752445.0,1752496.0,51.0,439.074047462618,9.05380654736529,9.347401431889297,3.1071762562900362,268.0,3.0997342416108746,0.0,0.0,0.0,0.0,0.0,0.0,0.0,0.0,0.0,0.0,0.0,0.0,0.0,-9.913047152273053,-0.09052750384485264,0.5291666666666667
127,1823.76961,3.507923,2,28,2,1,1,2,2,1,-43.84615385,n/a,n/a,1754383.0,1757892.0,0.0,0.0,0.0,1755859.0,1754900.0,1756893.0,1754900.0,1755492.0,1756899.0,1757892.0,3509.0,517.0,592.0,993.0,1993.0,-1756899.0,0.0,0.0,0.0,1.0,0.0,0.0,0.0,0.2561533783098934,-9.048445012190045,-0.14538434985156315,0.08307677134374868,1755842.0,1755893.0,51.0,448.12100167661254,9.307402736123105,9.84975305550965,-3.1170440146454137,350.0,-3.099759879763355,1.0,-9.055368076468692,-9.643828540153585,0.08307677134374868,-0.020769192835938154,1755895.0,1755916.0,21.0,56.03573255478888,0.5975530952113352,0.6060944095382235,2.9669204545815537,-2.9867722474072833,-10.075359134696688,0.07845716999887045,0.4708333333333333
128,1827.285923,3.5077345,2,29,2,1,2,1,1,1,-43.84615385,n/a,n/a,1757899.0,1761409.0,0.0,0.0,0.0,1759232.0,1758416.0,1760409.0,1758416.0,1758809.0,1760416.0,1761409.0,3510.0,517.0,393.0,993.0,1993.0,-1760416.0,0.0,0.0,0.0,1.0,0.0,0.0,0.0,0.23538418547395523,-10.498826978566337,-0.22153805691666445,0.06576911064713421,1759206.0,1759287.0,81.0,490.9819962242255,10.738055444201281,10.72261362196395,-3.1148334829194884,397.0,-3.081187574535449,0.0,0.0,0.0,0.0,0.0,0.0,0.0,0.0,0.0,0.0,0.0,0.0,0.0,-9.715954030758638,-0.2957231792265144,0.3958333333333333
129,1830.801977,3.5078361,2,30,2,1,2,2,5,1,-43.84615385,n/a,n/a,1761415.0,1764925.0,0.0,0.0,0.0,1763342.0,1761932.0,1763925.0,1761932.0,1763125.0,1763932.0,1764925.0,3510.0,517.0,1193.0,993.0,1993.0,-1763932.0,0.0,0.0,0.0,1.0,0.0,0.0,0.0,0.1107690284583342,-9.761520632890562,0.006923064278647363,1.031536577518223,1763312.0,1763375.0,63.0,493.6039100961882,9.925317929874561,10.520509639071816,-3.0381761008239128,187.0,-3.0380934802841755,1.0,-9.761520632890562,-10.509211574984308,1.0246135132395775,0.9553828704531196,1763377.0,1763410.0,33.0,59.085941559536145,0.7508892240468361,0.7543043103602669,3.0492633188581943,2.928896757636387,-10.539107655907072,0.5612705238380754,0.6916666666666667
130,1834.318135,3.5078412,2,31,2,2,1,2,3,2,-43.84615385,n/a,n/a,1764931.0,1768441.0,0.0,0.0,0.0,1766458.0,1765448.0,1767441.0,1765448.0,1766241.0,1767448.0,1768441.0,3510.0,517.0,793.0,993.0,1993.0,-1767448.0,0.0,0.0,0.0,1.0,0.0,0.0,0.0,0.2769225711458316,8.771522441044217,-0.22499958905598813,-0.9623059347317631,1766441.0,1766533.0,92.0,379.40113499005724,8.526537843524265,8.535922784406576,0.08658007744075841,200.0,0.09422120415623537,1.0,0.2769225711458316,8.771522441044217,-0.22499958905598813,-0.9623059347317631,1766441.0,1766533.0,92.0,379.40113499005724,8.526537843524265,8.535922784406576,0.08658007744075841,0.09422120415623537,9.994203143484869,0.006035166922989127,0.49583333333333335
131,1837.83431,3.5078454,2,32,2,2,2,1,4,1,-43.84615385,n/a,n/a,1768447.0,1771957.0,0.0,0.0,0.0,1770147.0,1768964.0,1770957.0,1768964.0,1769957.0,1770964.0,1771958.0,3510.0,517.0,993.0,994.0,1993.0,-1770964.0,0.0,0.0,0.0,1.0,0.0,0.0,0.0,0.2699995068671842,8.086139077458277,-0.1107690284583342,0.044999917811196055,1770126.0,1770188.0,62.0,395.1018790887701,7.81769158713631,8.543993975127682,-0.01992650303785795,169.0,-0.051475783838524976,0.0,0.0,0.0,0.0,0.0,0.0,0.0,0.0,0.0,0.0,0.0,0.0,0.0,9.773922595909939,0.23537150999661138,0.5791666666666667
132,1841.350486,3.5078587,2,33,2,2,2,1,1,1,-43.84615385,n/a,n/a,1771964.0,1775473.0,0.0,0.0,0.0,1773174.0,1772480.0,1774473.0,1772480.0,1772874.0,1774480.0,1775473.0,3509.0,516.0,394.0,993.0,1993.0,-1774480.0,0.0,0.0,0.0,1.0,0.0,0.0,0.0,0.2976917639817697,8.98267590154291,-0.07269217492578157,-0.4707683709479144,1773149.0,1773209.0,60.0,381.929351175675,8.694102261161188,9.22145729992253,0.04580293698835194,275.0,0.04731527961848809,0.0,0.0,0.0,0.0,0.0,0.0,0.0,0.0,0.0,0.0,0.0,0.0,0.0,10.457951664695257,-0.4767781869162158,0.3333333333333333
133,1844.866688,3.5078194,2,34,2,1,2,2,4,1,-43.84615385,n/a,n/a,1775480.0,1778989.0,0.0,0.0,0.0,1777190.0,1775997.0,1777989.0,1775997.0,1776990.0,1777996.0,1778989.0,3509.0,517.0,993.0,993.0,1992.0,-1777996.0,0.0,0.0,0.0,1.0,0.0,0.0,0.0,0.28384563542447894,-9.238829279852805,-0.24576878189192627,0.15923047840885393,1777170.0,1777259.0,89.0,478.16117275242334,9.531283331372297,9.620586773525254,-3.0990882794489636,180.0,-3.059825909137693,1.0,-9.557290236670513,-9.591905558063742,0.5192298208984342,0.578075867266925,1777466.0,1777485.0,19.0,45.871650177241314,0.06827208542559031,0.16415839450442357,-2.1025203940536907,2.006149601947203,-10.249264830150578,0.2595121776885718,0.5875
134,1848.382841,3.5078478,2,35,2,1,1,2,3,1,-43.84615385,n/a,n/a,1778996.0,1782505.0,0.0,0.0,0.0,1780556.0,1779513.0,1781506.0,1779513.0,1780305.0,1781512.0,1782505.0,3509.0,517.0,792.0,993.0,1993.0,-1781512.0,0.0,0.0,0.0,1.0,0.0,0.0,0.0,0.5849989315455684,-8.435753823529895,-0.5226913530377578,-0.6611526386106736,1780534.0,1780601.0,67.0,510.29266604283123,9.021815327072709,9.040685018844668,3.12624466466405,229.0,3.09563041250407,0.0,0.0,0.0,0.0,0.0,0.0,0.0,0.0,0.0,0.0,0.0,0.0,0.0,-9.959422004394089,-0.04224616846093176,0.5125
135,1851.899015,3.5078752,2,36,2,2,1,2,1,2,-43.84615385,n/a,n/a,1782512.0,1786022.0,0.0,0.0,0.0,1783706.0,1783029.0,1785022.0,1783029.0,1783422.0,1785028.0,1786022.0,3510.0,517.0,393.0,994.0,1993.0,-1785028.0,0.0,0.0,0.0,1.0,0.0,0.0,0.0,0.41538385671874734,8.304215602235626,-0.39807619602213284,-1.1076902845833263,1783688.0,1783758.0,70.0,399.25671765230237,7.920682954377067,8.38276601682294,0.08971029501960252,266.0,0.08475297220264809,1.0,0.41538385671874734,8.304215602235626,-0.39807619602213284,-1.1076902845833263,1783688.0,1783758.0,70.0,399.25671765230237,7.920682954377067,8.38276601682294,0.08971029501960252,0.08475297220264809,9.53045462227448,0.48884852076219404,0.32916666666666666
136,1855.415192,3.5078593,2,37,2,2,2,1,3,1,-43.84615385,n/a,n/a,1786028.0,1789538.0,0.0,0.0,0.0,1787378.0,1786545.0,1788538.0,1786545.0,1787338.0,1788545.0,1789538.0,3510.0,517.0,793.0,993.0,1993.0,-1788545.0,0.0,0.0,0.0,1.0,0.0,0.0,0.0,0.3253840210963513,8.813060826716086,-0.328845553235675,0.11423056059765394,1787361.0,1787401.0,40.0,408.84563325970163,8.499233730125608,8.424934746694566,-0.05215494279130598,23.0,-0.06949253161810105,0.0,0.0,0.0,0.0,0.0,0.0,0.0,0.0,0.0,0.0,0.0,0.0,0.0,10.249264830150578,-0.2595121776885718,0.4083333333333333
137,1858.931385,3.508015,2,38,2,1,2,2,3,1,-43.84615385,n/a,n/a,1789544.0,1793054.0,0.0,0.0,0.0,1791037.0,1790061.0,1792054.0,1790061.0,1790854.0,1792061.0,1793054.0,3510.0,517.0,793.0,993.0,1993.0,-1792061.0,0.0,0.0,0.0,1.0,0.0,0.0,0.0,0.4707683709479144,-9.25613694054942,-0.2007688640807263,0.1384612855729158,1791020.0,1791092.0,72.0,512.606174812142,9.732818915055855,10.012207509218998,-3.106731338069043,166.0,-3.0803599803275685,1.0,-9.650751604432228,-2.8453794185234207,0.5019221602018197,0.3011532961210934,1791864.0,1791925.0,61.0,394.61635078570487,6.808333035738298,7.142844519668981,0.02949297162130055,-0.05818667081360429,-9.947828291363829,-0.054316502306910014,0.4791666666666667
138,1862.44756,3.5078969,2,39,2,2,1,2,2,1,-43.84615385,n/a,n/a,1793060.0,1796570.0,0.0,0.0,0.0,1794387.0,1793577.0,1795570.0,1793577.0,1794171.0,1795577.0,1796570.0,3510.0,517.0,594.0,993.0,1993.0,-1795577.0,0.0,0.0,0.0,1.0,0.0,0.0,0.0,0.3599993424895802,8.560368980545515,-0.15923047840885393,-0.6403834457747355,1794368.0,1794444.0,76.0,418.8457861870983,8.214473225883363,8.599872691901071,0.058607351965551543,197.0,0.059606725412886,0.0,0.0,0.0,0.0,0.0,0.0,0.0,0.0,0.0,0.0,0.0,0.0,0.0,9.715954030758638,0.2957231792265144,0.3958333333333333
139,1865.963723,3.6494861,2,40,2,2,1,2,1,1,-43.84615385,n/a,n/a,1796577.0,1800228.0,0.0,0.0,0.0,1797927.0,1797236.0,1799228.0,1797236.0,1797627.0,1799235.0,1800228.0,3651.0,659.0,391.0,993.0,1992.0,-1799235.0,0.0,0.0,0.0,1.0,0.0,0.0,0.0,0.3461532139322894,9.474213465326763,-0.33576861751432235,-0.19730733194140657,1797911.0,1797956.0,45.0,380.38460120463753,9.129110333471177,9.088338164392074,-0.015167589132658062,284.0,-0.05182236191381533,1.0,9.456905804630148,9.294213794081971,-0.1869227355234355,-0.2769225711458316,1797958.0,1797990.0,32.0,79.39126235514931,0.18592649275524625,0.6186078508641384,2.6363024654903993,-2.9672446036787905,9.553642048335,0.4647078530702336,0.3375
140,1869.621543,3.5079212,2,41,2,2,1,1,3,1,-43.84615385,n/a,n/a,1800235.0,1803744.0,0.0,0.0,0.0,1801744.0,1800751.0,1802744.0,1800751.0,1801544.0,1802751.0,1803744.0,3509.0,516.0,793.0,993.0,1993.0,-1802751.0,0.0,0.0,0.0,1.0,0.0,0.0,0.0,0.31499942467838415,9.207675490598898,-0.5330759494557249,-0.5573066744309868,1801728.0,1801768.0,40.0,394.15049159981845,8.89270907774613,8.824592176347341,0.0027247888969318687,184.0,0.0427693483851143,1.0,9.197290894180933,8.906522194477805,-0.5607682065703105,-0.6611526386106736,1801770.0,1801798.0,28.0,83.5601398990773,0.3076092828948976,0.688427297932513,2.809166348205702,2.8978335020534964,9.971015717424349,0.03017583461494957,0.4875
141,1873.137716,3.5078628,2,42,2,2,2,1,1,1,-43.84615385,n/a,n/a,1803751.0,1807260.0,0.0,0.0,0.0,1805067.0,1804267.0,1806261.0,1804267.0,1804660.0,1806267.0,1807260.0,3509.0,516.0,393.0,993.0,1994.0,-1806267.0,0.0,0.0,0.0,1.0,0.0,0.0,0.0,0.26653797472786445,9.546905640252541,-0.3530762782109368,-0.1730766069661447,1805054.0,1805099.0,45.0,386.10913178249234,9.282113115501456,9.25932931038977,-0.0193933162094381,394.0,-0.046747354765199055,1.0,0.26653797472786445,9.546905640252541,-0.3530762782109368,-0.1730766069661447,1805054.0,1805099.0,45.0,386.10913178249234,9.282113115501456,9.25932931038977,-0.0193933162094381,-0.046747354765199055,10.295639682271618,-0.3077935130724927,0.39166666666666666
142,1876.653917,3.5078292,2,43,2,1,1,1,5,1,-43.84615385,n/a,n/a,1807267.0,1810777.0,0.0,0.0,0.0,1809193.0,1807783.0,1809776.0,1807783.0,1808976.0,1809783.0,1810777.0,3510.0,516.0,1193.0,994.0,1993.0,-1809783.0,0.0,0.0,0.0,1.0,0.0,0.0,0.0,0.3530762782109368,-8.176138913080678,-0.3703839389075513,-1.031536577518221,1809180.0,1809248.0,68.0,458.68239788590154,8.554801844046507,8.63586712207424,3.064231121448649,204.0,3.048465069264262,1.0,-8.255754152285103,-8.186523509498645,-1.2634592308528565,-1.0730749631900973,1809536.0,1809566.0,30.0,65.21515934783802,0.20258097461042898,0.3099956162715129,-1.2220253232109897,-1.157107113516033,-9.43770491803241,-0.5854111915300358,0.7
143,1880.170088,3.5078539,2,44,2,2,1,2,1,2,-43.84615385,n/a,n/a,1810783.0,1814293.0,0.0,0.0,0.0,1812050.0,1811300.0,1813292.0,1811300.0,1811693.0,1813299.0,1814293.0,3510.0,517.0,393.0,994.0,1992.0,-1813299.0,0.0,0.0,0.0,1.0,0.0,0.0,0.0,0.30461482826041314,7.7711396527798975,-0.14538434985156315,-0.41538385671874734,1812032.0,1812090.0,58.0,514.5552615279596,7.471405000993738,8.177210129948895,0.03614558551402888,339.0,0.05293904433074193,1.0,7.774601184919217,8.307677134374947,-0.43269151741536177,-0.5469220780130157,1812094.0,1812121.0,27.0,40.310297690796645,0.5451775755316621,0.5516448622760012,0.2110933332227425,2.8813944655391137,9.63479803954682,0.380215516148374,0.36666666666666664
144,1883.686268,3.5078465,2,45,2,1,1,2,2,2,-43.84615385,n/a,n/a,1814299.0,1817808.0,0.0,0.0,0.0,1815742.0,1814816.0,1816809.0,1814816.0,1815409.0,1816815.0,1817808.0,3509.0,517.0,593.0,993.0,1993.0,-1816815.0,0.0,0.0,0.0,1.0,0.0,0.0,0.0,0.26307644258854074,-9.671520797268165,-0.4465376459726526,-1.2392285058775947,1815719.0,1815786.0,67.0,436.2907717593719,9.966171838652258,10.760954770343032,3.061970401089724,310.0,3.051078381904808,0.0,0.0,0.0,0.0,0.0,0.0,0.0,0.0,0.0,0.0,0.0,0.0,0.0,-10.133327699847984,0.1388088392287696,0.45
145,1887.202444,3.5078308,2,46,2,2,1,1,1,2,-43.84615385,n/a,n/a,1817815.0,1821324.0,0.0,0.0,0.0,1818959.0,1818332.0,1820325.0,1818332.0,1818725.0,1820332.0,1821324.0,3509.0,517.0,393.0,992.0,1993.0,-1820332.0,0.0,0.0,0.0,1.0,0.0,0.0,0.0,0.36692240676822757,7.504601678052033,-0.2699995068671842,-0.6749987671679644,1818941.0,1819023.0,82.0,377.10140767387736,7.149160075180769,7.383934079783672,0.05668025207024433,216.0,0.06943705948481568,1.0,0.36692240676822757,7.504601678052033,-0.2699995068671842,-0.6749987671679644,1818941.0,1819023.0,82.0,377.10140767387736,7.149160075180769,7.383934079783672,0.05668025207024433,0.06943705948481568,9.460892344092928,0.5612705238380754,0.30416666666666664
146,1890.718625,3.6744781,2,47,2,2,1,2,1,2,-43.84615385,n/a,n/a,1821331.0,1825008.0,0.0,0.0,0.0,1822815.0,1822015.0,1824007.0,1822015.0,1822408.0,1824014.0,1825008.0,3677.0,684.0,393.0,994.0,1992.0,-1824014.0,0.0,0.0,0.0,1.0,0.0,0.0,0.0,0.24923031403124998,7.978831581139271,-0.3807685353255184,-0.7615370706510368,1822800.0,1822857.0,57.0,430.3366521477537,7.7389741197378275,8.26109639084082,0.049221295118335236,392.0,0.05449906340668138,0.0,0.0,0.0,0.0,0.0,0.0,0.0,0.0,0.0,0.0,0.0,0.0,0.0,9.704360317728378,0.3077935130724927,0.39166666666666666
147,1894.40143,3.5078471,2,48,2,1,2,1,5,2,-43.84615385,n/a,n/a,1825014.0,1828524.0,0.0,0.0,0.0,1826957.0,1825531.0,1827523.0,1825531.0,1826724.0,1827530.0,1828524.0,3510.0,517.0,1193.0,994.0,1992.0,-1827530.0,0.0,0.0,0.0,1.0,0.0,0.0,0.0,0.4569222423906236,-9.141906379951765,-0.13153822129426843,1.2253823773203039,1826938.0,1827009.0,71.0,461.8007642332365,9.69426348063864,9.82055945920613,-3.001160022520926,214.0,-3.0008421016486277,1.0,0.4569222423906236,-9.141906379951765,-0.13153822129426843,1.2253823773203039,1826938.0,1827009.0,71.0,461.8007642332365,9.69426348063864,9.82055945920613,-3.001160022520926,-3.0008421016486277,-10.573888794997847,0.5974815253760181,0.7041666666666667
148,1897.917621,3.5078675,2,49,2,2,1,1,3,1,-43.84615385,n/a,n/a,1828530.0,1832040.0,0.0,0.0,0.0,1830180.0,1829047.0,1831040.0,1829047.0,1829840.0,1831047.0,1832040.0,3510.0,517.0,793.0,993.0,1993.0,-1831047.0,0.0,0.0,0.0,1.0,0.0,0.0,0.0,0.3426916817929658,9.782289825726496,0.03461532139322895,-0.6265373172174447,1830160.0,1830214.0,54.0,427.6708599264973,9.462723494348507,9.473813173742192,0.06992614219958125,320.0,0.0709430143406567,1.0,9.51921338313796,9.910366514881446,-0.6299988493567683,-0.7061525564218697,1830233.0,1830254.0,21.0,35.76916543966886,0.39849737712122246,0.40216389661011,0.19228487180758908,0.2345406288657272,10.168108838938759,-0.17501984076671223,0.5583333333333333
149,1901.433786,3.5078582,2,50,2,2,2,2,3,2,-43.84615385,n/a,n/a,1832046.0,1835556.0,0.0,0.0,0.0,1833596.0,1832563.0,1834556.0,1832563.0,1833357.0,1834563.0,1835556.0,3510.0,517.0,794.0,993.0,1993.0,-1834563.0,0.0,0.0,0.0,1.0,0.0,0.0,0.0,0.3426916817929658,8.847676148109315,-0.1765381391054684,0.5192298208984342,1833576.0,1833644.0,68.0,400.52227160668207,8.53339638282732,9.01478940399339,-0.0816253159197711,219.0,-0.11854442934473532,1.0,8.837291551691347,9.214598554877547,0.5261528851770815,0.5642297387096302,1833648.0,1833669.0,21.0,38.08122390312897,0.37922344525133106,0.35680656592246407,-0.10057691745483889,-0.24497866312686414,9.971015717424349,0.03017583461494957,0.5083333333333333
150,1904.949977,3.5079093,2,51,2,2,2,1,1,1,-43.84615385,n/a,n/a,1835563.0,1839072.0,0.0,0.0,0.0,1836896.0,1836079.0,1838072.0,1836079.0,1836472.0,1838079.0,1839072.0,3509.0,516.0,393.0,993.0,1993.0,-1838079.0,0.0,0.0,0.0,1.0,0.0,0.0,0.0,0.5607682065703105,7.553063128002557,0.03807685353255263,0.5053836923411433,1836883.0,1836933.0,50.0,434.46633572204865,7.007892975059227,7.757846484659776,-0.06673244831517053,411.0,0.07995452314398789,1.0,7.553063128002557,8.124215930990834,0.4949990959231723,0.4776914352265578,1836935.0,1836965.0,30.0,62.478284522251506,0.5714149800977879,0.5776715349842803,0.0302937599187751,2.9912212255826587,10.272452256211098,-0.28365284538053226,0.4
151,1908.466159,3.5078266,2,52,2,1,1,2,4,1,-43.84615385,n/a,n/a,1839079.0,1842588.0,0.0,0.0,0.0,1840829.0,1839595.0,1841589.0,1839596.0,1840588.0,1841595.0,1842588.0,3509.0,517.0,992.0,993.0,1994.0,-1841595.0,0.0,0.0,0.0,1.0,0.0,0.0,0.0,0.4880760316445289,-8.788830101740828,-0.5296144173164012,-1.869227355234363,1840811.0,1840880.0,69.0,486.466041488464,9.373129158988478,9.638818205307588,2.9981810025567035,223.0,2.990909192969237,1.0,-2.049227026479155,-1.6892276839895708,-0.10038443204036315,-0.017307660696614473,1841843.0,1841866.0,23.0,24.646119635759263,0.36946079160018375,0.35377129424262416,-0.22679884805388187,0.28770798354827426,-9.692766604698118,-0.3198638469184749,0.6083333333333333
152,1911.982331,3.5078265,2,53,2,2,1,2,1,2,-43.84615385,n/a,n/a,1842595.0,1846104.0,0.0,0.0,0.0,1843854.0,1843112.0,1845105.0,1843112.0,1843505.0,1845111.0,1846104.0,3509.0,517.0,393.0,993.0,1993.0,-1845111.0,0.0,0.0,0.0,1.0,0.0,0.0,0.0,0.21115346049869735,8.238446491588489,-0.09346136776171972,-0.7857677956262986,1843834.0,1843896.0,62.0,449.6536318723051,8.057091385670473,8.37463315590344,0.08603119101858084,329.0,0.09687191716553083,1.0,8.255754152285103,8.619215026914008,-0.7788447313476512,-0.8446138419947854,1843898.0,1843918.0,20.0,39.17975962514089,0.3693634839847096,0.35520784906021524,0.17901527702148357,0.2662520491509166,9.623204326516559,0.39228584999435623,0.3625
153,1915.498482,3.5078473,2,54,2,2,2,2,2,1,-43.84615385,n/a,n/a,1846111.0,1849621.0,0.0,0.0,0.0,1847421.0,1846628.0,1848620.0,1846628.0,1847221.0,1848627.0,1849621.0,3510.0,517.0,593.0,994.0,1992.0,-1848627.0,0.0,0.0,0.0,1.0,0.0,0.0,0.0,0.4846144995052052,9.280367665524677,-0.1349997534335921,-0.18346120338411182,1847405.0,1847465.0,60.0,369.2057551610138,8.795886667623273,9.181691651274981,0.00550958612378194,184.0,0.03355963238007919,0.0,0.0,0.0,0.0,0.0,0.0,0.0,0.0,0.0,0.0,0.0,0.0,0.0,10.307233395301878,-0.3198638469184749,0.3875
154,1919.014669,3.507846,2,55,2,1,1,2,2,2,-43.84615385,n/a,n/a,1849627.0,1853137.0,0.0,0.0,0.0,1851044.0,1850144.0,1852136.0,1850144.0,1850737.0,1852143.0,1853137.0,3510.0,517.0,593.0,994.0,1992.0,-1852143.0,0.0,0.0,0.0,1.0,0.0,0.0,0.0,0.3599993424895802,-10.263442793092382,-0.35653781035025656,-1.744612198218738,1851027.0,1851091.0,64.0,529.5820508761997,10.713742264695128,10.999859212351053,3.011667244171239,290.0,2.997915449553161,1.0,-10.273827389510348,-10.69267277836842,-1.744612198218738,-1.7411506660794143,1851093.0,1851116.0,23.0,44.51655344139568,0.41885969246565163,0.45604290135130937,-3.1333283789301403,3.0351265227131075,-10.156515125908504,0.16294950692073004,0.44166666666666665
155,1922.530846,3.5078628,2,56,2,1,2,1,1,2,-43.84615385,n/a,n/a,1853143.0,1856653.0,0.0,0.0,0.0,1854469.0,1853660.0,1855653.0,1853660.0,1854054.0,1855660.0,1856653.0,3510.0,517.0,394.0,993.0,1993.0,-1855660.0,0.0,0.0,0.0,1.0,0.0,0.0,0.0,0.02769225711458158,-9.048445012190045,-0.15230741413020657,0.9553828704531196,1854449.0,1854523.0,74.0,432.3286736344479,9.143481038303777,9.242198115067358,-3.0201489956711165,395.0,-3.0161691841174796,0.0,0.0,0.0,0.0,0.0,0.0,0.0,0.0,0.0,0.0,0.0,0.0,0.0,-9.715954030758638,-0.2957231792265144,0.3958333333333333
