onset	duration	run_number	trial_number	task	ext_mot_pos	ext_mot_ver_dir	staircase_num	fix_off_prct	trial_type	ext_mot_ori	direction_report	response_duration
18424.74113	3.5328533	2	1	2	1	2	1	3	2	-40.67307692	n/a	n/a
18428.29063	3.7411733	2	2	2	1	1	1	3	1	-40.67307692	n/a	n/a
18432.04013	3.5078323	2	3	2	1	2	1	3	1	-40.67307692	n/a	n/a
18435.55641	3.5077275	2	4	2	1	2	1	3	1	-40.67307692	n/a	n/a
18439.08095	3.5160263	2	5	2	1	2	1	5	2	-40.67307692	n/a	n/a
18442.61364	3.507825	2	6	2	2	2	1	1	1	-40.67307692	n/a	n/a
18446.12986	3.5077634	2	7	2	1	2	1	3	2	-40.67307692	n/a	n/a
18449.64598	3.5078041	2	8	2	2	1	2	1	2	-40.67307692	n/a	n/a
18453.16222	3.7994894	2	9	2	1	2	1	5	2	-40.67307692	n/a	n/a
18456.96992	3.7661572	2	10	2	1	1	2	1	2	-40.67307692	n/a	n/a
18460.74441	3.5078306	2	11	2	2	2	1	4	1	-40.67307692	n/a	n/a
18464.26057	3.6661886	2	12	2	2	1	2	2	1	-40.67307692	n/a	n/a
18467.93513	3.5744222	2	13	2	2	1	1	5	1	-40.67307692	n/a	n/a
18471.51789	3.7244827	2	14	2	2	2	2	1	1	-40.67307692	n/a	n/a
18475.25069	3.5078574	2	15	2	1	2	1	4	1	-40.67307692	n/a	n/a
18478.76698	3.5077269	2	16	2	2	1	1	2	2	-40.67307692	n/a	n/a
18482.28317	3.5077219	2	17	2	2	2	1	2	1	-40.67307692	n/a	n/a
18485.79921	3.5078531	2	18	2	2	2	2	2	2	-40.67307692	n/a	n/a
18489.31539	3.5078279	2	19	2	2	1	2	1	2	-40.67307692	n/a	n/a
18492.83155	3.9994082	2	20	2	1	2	1	4	1	-40.67307692	n/a	n/a
18496.83945	3.5077013	2	21	2	1	2	1	3	2	-40.67307692	n/a	n/a
18500.35561	3.9992991	2	22	2	1	2	2	1	2	-40.67307692	n/a	n/a
18504.36326	3.6994791	2	23	2	1	2	2	2	2	-40.67307692	n/a	n/a
18508.07109	3.5078431	2	24	2	2	2	1	4	2	-40.67307692	n/a	n/a
18511.58722	3.5078698	2	25	2	1	2	2	3	1	-40.67307692	n/a	n/a
18515.10342	3.5078468	2	26	2	1	1	1	2	1	-40.67307692	n/a	n/a
18518.61959	3.5079707	2	27	2	2	2	2	4	1	-40.67307692	n/a	n/a
18522.13581	3.6495155	2	28	2	1	2	2	3	1	-40.67307692	n/a	n/a
18525.79358	3.5078141	2	29	2	1	1	1	5	1	-40.67307692	n/a	n/a
18529.30975	3.6995991	2	30	2	1	2	2	3	2	-40.67307692	n/a	n/a
18533.01775	3.5076545	2	31	2	2	2	2	4	2	-40.67307692	n/a	n/a
18536.53389	3.9243194	2	32	2	1	2	1	5	2	-40.67307692	n/a	n/a
18540.46652	3.9994613	2	33	2	1	1	2	3	2	-40.67307692	n/a	n/a
18544.47431	3.5078429	2	34	2	1	1	1	4	1	-40.67307692	n/a	n/a
18547.99047	3.7244585	2	35	2	1	2	2	2	1	-40.67307692	n/a	n/a
18559.89712	3.5078015	2	36	2	2	1	2	3	2	-40.67307692	n/a	n/a
18563.41326	3.4995391	2	37	2	2	1	2	2	2	-40.67307692	n/a	n/a
18566.92113	3.5078645	2	38	2	2	2	2	5	2	-40.67307692	n/a	n/a
18579.82766	3.6994938	2	39	2	1	1	2	4	1	-40.67307692	n/a	n/a
18583.53549	3.6744607	2	40	2	1	1	1	2	1	-40.67307692	n/a	n/a
18587.21829	3.7328116	2	41	2	1	2	1	4	1	-40.67307692	n/a	n/a
18590.9595	3.5077715	2	42	2	2	1	2	4	1	-40.67307692	n/a	n/a
18594.4756	3.5078444	2	43	2	2	1	2	3	1	-40.67307692	n/a	n/a
18597.99177	3.5078107	2	44	2	2	1	1	2	2	-40.67307692	n/a	n/a
18601.50792	3.5078516	2	45	2	1	2	2	5	2	-40.67307692	n/a	n/a
18605.02415	3.5078087	2	46	2	1	1	2	3	1	-40.67307692	n/a	n/a
18608.54027	3.5078556	2	47	2	1	1	1	5	2	-40.67307692	n/a	n/a
18619.61377	3.5828347	2	48	2	2	2	1	2	1	-40.67307692	n/a	n/a
18623.21349	3.990881322	2	49	2	1	1	2	4	1	-40.67307692	n/a	n/a
18627.2127	3.507825	2	50	2	2	1	2	1	1	-40.67307692	n/a	n/a
18630.72888	3.5078423	2	51	2	2	1	1	2	1	-40.67307692	n/a	n/a
18634.24506	3.5079032	2	52	2	2	2	2	1	1	-40.67307692	n/a	n/a
18637.76122	3.5078733	2	53	2	2	1	2	5	2	-40.67307692	n/a	n/a
18641.27742	3.5078142	2	54	2	2	1	1	4	1	-40.67307692	n/a	n/a
18644.79374	3.5076864	2	55	2	2	1	1	2	1	-40.67307692	n/a	n/a
18648.30976	3.5077975	2	56	2	1	2	2	2	2	-40.67307692	n/a	n/a
18651.82603	3.5076995	2	57	2	2	2	2	3	1	-40.67307692	n/a	n/a
18655.34218	3.5077621	2	58	2	1	2	2	1	1	-40.67307692	n/a	n/a
18658.85827	3.7328445	2	59	2	2	2	1	3	2	-40.67307692	n/a	n/a
18662.59942	3.5078674	2	60	2	2	2	1	2	2	-40.67307692	n/a	n/a
18666.11561	3.7078127	2	61	2	2	2	2	4	1	-40.67307692	n/a	n/a
18669.83175	3.7328113	2	62	2	1	2	2	5	2	-40.67307692	n/a	n/a
18673.57309	3.9994366	2	63	2	1	2	2	2	2	-40.67307692	n/a	n/a
18677.58067	3.874501	2	64	2	2	1	2	1	1	-40.67307692	n/a	n/a
18681.46346	3.9994585	2	65	2	2	1	2	2	2	-40.67307692	n/a	n/a
18685.47125	3.9994416	2	66	2	1	2	2	1	1	-40.67307692	n/a	n/a
18699.35275	3.6493254	2	67	2	2	1	2	5	2	-40.67307692	n/a	n/a
18703.01039	3.5079592	2	68	2	1	2	2	1	2	-40.67307692	n/a	n/a
18706.52661	3.9994394	2	69	2	2	1	2	5	1	-40.67307692	n/a	n/a
18710.53434	3.7161647	2	70	2	2	2	1	4	1	-40.67307692	n/a	n/a
18714.25884	3.8161991	2	71	2	2	1	1	5	2	-40.67307692	n/a	n/a
18718.08336	3.507834	2	72	2	2	1	2	5	1	-40.67307692	n/a	n/a
18721.59967	3.507721	2	73	2	2	1	1	3	2	-40.67307692	n/a	n/a
18725.1157	3.7578165	2	74	2	1	1	1	4	1	-40.67307692	n/a	n/a
18728.88188	3.8244421	2	75	2	2	2	1	1	1	-40.67307692	n/a	n/a
18732.71465	3.7328132	2	76	2	2	2	2	2	2	-40.67307692	n/a	n/a
18736.45579	3.6495087	2	77	2	1	2	2	5	2	-40.67307692	n/a	n/a
18740.11363	3.9995534	2	78	2	1	1	2	4	1	-40.67307692	n/a	n/a
18744.12154	3.9159745	2	79	2	1	2	2	3	1	-40.67307692	n/a	n/a
18748.04585	3.9994243	2	80	2	1	1	2	2	1	-40.67307692	n/a	n/a
18764.86849	3.5078071	2	81	2	2	1	2	4	1	-40.67307692	n/a	n/a
18768.38464	3.5078973	2	82	2	1	1	1	4	2	-40.67307692	n/a	n/a
18771.90087	3.6078343	2	83	2	2	1	2	3	1	-40.67307692	n/a	n/a
18775.5171	3.6577629	2	84	2	1	2	1	2	2	-40.67307692	n/a	n/a
18779.18319	3.6578097	2	85	2	1	1	1	1	1	-40.67307692	n/a	n/a
18782.8493	3.9994846	2	86	2	1	2	2	4	1	-40.67307692	n/a	n/a
18786.85724	3.9993274	2	87	2	2	2	1	5	2	-40.67307692	n/a	n/a
18801.66337	3.8577696	2	88	2	1	2	2	4	2	-40.67307692	n/a	n/a
18805.52947	3.999477	2	89	2	1	1	1	5	1	-40.67307692	n/a	n/a
18809.53741	3.6827046	2	90	2	2	2	1	5	1	-40.67307692	n/a	n/a
18813.22858	3.7576924	2	91	2	1	1	1	4	1	-40.67307692	n/a	n/a
18816.99459	3.9994575	2	92	2	2	2	2	1	1	-40.67307692	n/a	n/a
18821.00254	3.8493027	2	93	2	1	1	1	5	1	-40.67307692	n/a	n/a
18837.74169	3.5080311	2	94	2	1	2	2	1	2	-40.67307692	n/a	n/a
18841.25797	3.532738	2	95	2	1	1	2	5	2	-40.67307692	n/a	n/a
18844.79906	3.7078006	2	96	2	1	2	1	1	1	-40.67307692	n/a	n/a
18848.5152	3.9994299	2	97	2	1	1	1	5	2	-40.67307692	n/a	n/a
18852.52293	3.9995039	2	98	2	2	1	1	4	1	-40.67307692	n/a	n/a
18856.53076	3.6911584	2	99	2	2	1	1	2	1	-40.67307692	n/a	n/a
18860.23025	3.5078618	2	100	2	1	1	2	3	1	-40.67307692	n/a	n/a
