,onset,duration,run_number,trial_number,task,ext_mot_pos,ext_mot_ver_dir,staircase_num,fix_off_prct,trial_type,ext_mot_ori,direction_report,response_duration,trial_onset,trial_offset,button_press_onset,button_left,button_right,fix_break,motion_onset,motion_offset,fixation_onset,fixation_offset,response_onset,response_offset,trial_duration,fix_check_duration,fixation_duration,response_duration,motion_duration,reaction_time,miss_time_trial,blink_trial,no_saccade_trial,main_sac_trial,innacurate_sac_trial,early_sac_trial,late_sac_trial,sac_x_onset_trial,sac_x_offset_trial,sac_y_onset_trial,sac_y_offset_trial,sac_t_onset_trial,sac_t_offset_trial,sac_dur_trial,sac_vpeak_trial,sac_dist_trial,sac_amp_trial,sac_dist_ang_trial,sac_lat_trial,sac_amp_ang_trial,cor_sac_trial,cor_sac_x_onset_trial,cor_sac_x_offset_trial,cor_sac_y_onset_trial,cor_sac_y_offset_trial,cor_sac_t_onset_trial,cor_sac_t_offset_trial,cor_sac_dur_trial,cor_sac_vpeak_trial,cor_sac_dist_trial,cor_sac_amp_trial,cor_sac_dist_ang_trial,cor_sac_amp_ang_trial,gabor_sac_onset_x,gabor_sac_onset_y,sac_onset_gabor_path_prct
0,17687.24479,3.7244641,1,1,2,1,1,1,2,1,-40.67307692,n/a,n/a,15263629.0,15267353.0,0.0,0.0,0.0,15264885.0,15264352.0,15266353.0,15264353.0,15264953.0,15266360.0,15267353.0,3724.0,724.0,600.0,993.0,2001.0,-15266360.0,0.0,0.0,0.0,1.0,0.0,0.0,0.0,-0.48115296736588153,-11.319210095585865,0.22153805691666445,1.2219208451809822,15264861.0,15264947.0,86.0,396.60567322865353,10.884128262640765,11.27405235121013,-3.04955067685731,-92.0,-3.0227978119660373,0.0,0.0,0.0,0.0,0.0,0.0,0.0,0.0,0.0,0.0,0.0,0.0,0.0,-10.638107315562626,0.7425737115257599,0.25416666666666665
1,17690.97759,3.6911436,1,2,2,2,1,2,1,2,-40.67307692,n/a,n/a,15267360.0,15271052.0,0.0,0.0,0.0,15268543.0,15268060.0,15270053.0,15268060.0,15268452.0,15270059.0,15271053.0,3692.0,700.0,392.0,994.0,1993.0,-15270059.0,0.0,0.0,0.0,1.0,0.0,0.0,0.0,-0.6265373172174447,7.667293688600211,0.3461532139322894,-0.1730766069661447,15268520.0,15268559.0,39.0,329.1874801097238,8.310068132089684,8.295718308505789,0.06252274389362394,68.0,-0.07392362553785051,0.0,0.0,0.0,0.0,0.0,0.0,0.0,0.0,0.0,0.0,0.0,0.0,0.0,9.296445780277102,0.818735117836096,0.22916666666666666
2,17694.67717,3.5077221,1,3,2,1,2,1,1,2,-40.67307692,n/a,n/a,15271059.0,15274568.0,0.0,0.0,0.0,15272202.0,15271576.0,15273569.0,15271576.0,15271969.0,15273575.0,15274569.0,3509.0,517.0,393.0,994.0,1993.0,-15273575.0,0.0,0.0,0.0,1.0,0.0,0.0,0.0,-0.21807652477734077,-9.200752426320252,0.20769192835937367,0.08999983562239604,15272187.0,15272238.0,51.0,359.89623989599477,8.983446876386177,9.312281931343055,3.1284912837795265,218.0,-3.1114790373336425,1.0,-0.21807652477734077,-9.200752426320252,0.20769192835937367,0.08999983562239604,15272187.0,15272238.0,51.0,359.89623989599477,8.983446876386177,9.312281931343055,3.1284912837795265,-3.1114790373336425,-9.492786492757912,-0.5902508989050917,0.30416666666666664
3,17698.19323,3.5078521,1,4,2,1,1,2,5,1,-40.67307692,n/a,n/a,15274575.0,15278085.0,0.0,0.0,0.0,15276569.0,15275092.0,15277085.0,15275092.0,15276285.0,15277091.0,15278085.0,3510.0,517.0,1193.0,994.0,1993.0,-15277091.0,0.0,0.0,0.0,1.0,0.0,0.0,0.0,-0.21461499263802103,-8.501522934177029,0.05884604636849078,0.020769192835938154,15276550.0,15276602.0,52.0,333.7482684998301,8.286995419228687,8.54303677491395,3.1369978655409456,265.0,-3.1132257208540906,1.0,-0.21461499263802103,-8.501522934177029,0.05884604636849078,0.020769192835938154,15276550.0,15276602.0,52.0,333.7482684998301,8.286995419228687,8.54303677491395,3.1369978655409456,-3.1132257208540906,-9.394616136517506,-0.7044930083705939,0.7291666666666666
4,17701.70948,3.5161042,1,5,2,1,2,1,4,1,-40.67307692,n/a,n/a,15278092.0,15281610.0,0.0,0.0,0.0,15280576.0,15278617.0,15280609.0,15278617.0,15279610.0,15280616.0,15281613.0,3518.0,525.0,993.0,997.0,1992.0,-15280616.0,0.0,0.0,0.0,0.0,0.0,0.0,1.0,-0.2423072497526026,-11.423056059765551,-0.024230724975261835,2.3296111297643085,15280563.0,15280603.0,40.0,420.3240221989422,11.425835436839172,11.390371246928547,-2.9340964271545906,953.0,-2.935614636690721,0.0,0.0,0.0,0.0,0.0,0.0,0.0,0.0,0.0,0.0,0.0,0.0,0.0,0.0,0.0,0.0
5,17705.24236,3.6910323,1,6,2,1,2,1,2,2,-40.67307692,n/a,n/a,15281626.0,15285317.0,0.0,0.0,0.0,15283216.0,15282326.0,15284317.0,15282326.0,15282916.0,15284324.0,15285318.0,3691.0,700.0,590.0,994.0,1991.0,-15284324.0,0.0,1.0,0.0,0.0,0.0,0.0,0.0,0.0,0.0,0.0,0.0,0.0,0.0,0.0,0.0,0.0,0.0,0.0,0.0,0.0,0.0,0.0,0.0,0.0,0.0,0.0,0.0,0.0,0.0,0.0,0.0,0.0,0.0,0.0,0.0,0.0
6,17708.94173,3.5078244,1,7,2,1,2,1,4,2,-40.67307692,n/a,n/a,15285323.0,15288833.0,0.0,0.0,0.0,15287073.0,15285840.0,15287833.0,15285840.0,15286833.0,15287840.0,15288833.0,3510.0,517.0,993.0,993.0,1993.0,-15287840.0,0.0,0.0,0.0,1.0,0.0,0.0,0.0,-0.5261528851770815,-10.40536561080462,0.031153789253905263,0.6265373172174447,15287055.0,15287100.0,45.0,361.30337621717445,9.897137243848416,9.885215217052504,-3.0813991649925194,222.0,-3.0729048125711533,1.0,-1.0488442382148355,-1.0246135132395775,-0.09692289990103947,-0.1384612855729158,15288108.0,15288128.0,20.0,31.414450447202455,0.04808914136322384,0.154688276507551,1.0427218783685959,0.8645972343669169,-10.289057160041189,0.3363795445373101,0.6083333333333333
7,17712.45804,3.5076927,1,8,2,1,2,2,3,1,-40.67307692,n/a,n/a,15288840.0,15292349.0,0.0,0.0,0.0,15290456.0,15289356.0,15291349.0,15289356.0,15290150.0,15291356.0,15292349.0,3509.0,516.0,794.0,993.0,1993.0,-15291356.0,0.0,0.0,0.0,1.0,0.0,0.0,0.0,-0.46384530666926704,-9.183444765623637,0.5053836923411433,1.1596132666731696,15290438.0,15290487.0,49.0,356.36086235787036,8.744108362807955,8.882371060103177,-3.0667031987654325,288.0,-3.0577070611799075,0.0,0.0,0.0,0.0,0.0,0.0,0.0,0.0,0.0,0.0,0.0,0.0,0.0,-10.114532082280471,0.13328246104308714,0.5416666666666666
8,17715.9742,3.5076866,1,9,2,1,2,1,4,1,-40.67307692,n/a,n/a,15292356.0,15295865.0,0.0,0.0,0.0,15294432.0,15292873.0,15294865.0,15292873.0,15293865.0,15294872.0,15295865.0,3509.0,517.0,992.0,993.0,1992.0,-15294872.0,0.0,0.0,0.0,1.0,0.0,0.0,0.0,-0.3115378925390605,-11.056133652997325,0.2388457176132789,1.4780742234908755,15294413.0,15294470.0,57.0,376.29117037917814,10.815822915776558,11.160791286884217,-3.0267649610834177,548.0,-3.0240852861051044,0.0,0.0,0.0,0.0,0.0,0.0,0.0,0.0,0.0,0.0,0.0,0.0,0.0,-10.714462037082937,0.8314286855544847,0.7708333333333334
9,17719.49035,3.507706,1,10,2,2,1,1,4,2,-40.67307692,n/a,n/a,15295872.0,15299381.0,0.0,0.0,0.0,15297638.0,15296389.0,15298382.0,15296389.0,15297381.0,15298388.0,15299381.0,3509.0,517.0,992.0,993.0,1993.0,-15298388.0,0.0,0.0,0.0,1.0,0.0,0.0,0.0,-0.2596149104492171,8.546522851988229,-0.21115346049869735,-1.4988434163268116,15297618.0,15297706.0,88.0,324.33486841546204,8.899786947639106,9.947521334436326,0.1451973726546508,237.0,0.29808958834913524,1.0,-0.2596149104492171,8.546522851988229,-0.21115346049869735,-1.4988434163268116,15297618.0,15297706.0,88.0,324.33486841546204,8.899786947639106,9.947521334436326,0.1451973726546508,0.29808958834913524,10.29996497740123,-0.3490731122556988,0.6125
10,17723.00639,3.5078291,1,11,2,1,2,1,5,2,-40.67307692,n/a,n/a,15299388.0,15302898.0,0.0,0.0,0.0,15301321.0,15299905.0,15301897.0,15299905.0,15301098.0,15301904.0,15302898.0,3510.0,517.0,1193.0,994.0,1992.0,-15301904.0,0.0,0.0,0.0,1.0,0.0,0.0,0.0,-0.4049992603007802,-9.418828951097597,0.4776914352265578,1.6061509126458222,15301305.0,15301360.0,55.0,339.16587759133256,9.084192120759424,9.349936637800454,-3.017048605259482,207.0,-3.007915739505215,1.0,-0.7234602171184842,-33.26532385889301,0.22153805691666445,18.726888873736858,15302768.0,15302802.0,34.0,17539.77265798951,37.43555660242592,52.619317973968535,-2.624533907714648,-2.3123152375770673,-10.529029141962175,0.6156380343418691,0.7
11,17726.52257,3.5578344,1,12,2,2,1,2,5,2,-40.67307692,n/a,n/a,15302904.0,15306464.0,0.0,0.0,0.0,15304971.0,15303471.0,15305463.0,15303471.0,15304664.0,15305470.0,15306464.0,3560.0,567.0,1193.0,994.0,1992.0,-15305470.0,0.0,0.0,0.0,1.0,0.0,0.0,0.0,-0.4430761138333289,9.48459806174473,0.07269217492578157,-2.249995890559881,15304950.0,15305009.0,59.0,380.4384103020865,10.19576355090628,10.6695292021254,0.2298270597813414,286.0,0.23443451503391313,0.0,0.0,0.0,0.0,0.0,0.0,0.0,0.0,0.0,0.0,0.0,0.0,0.0,10.62719949820258,-0.7298801438073713,0.7375
12,17730.08874,3.5078266,1,13,2,1,2,1,1,2,-40.67307692,n/a,n/a,15306470.0,15309980.0,0.0,0.0,0.0,15307730.0,15306987.0,15308980.0,15306988.0,15307381.0,15308987.0,15309980.0,3510.0,518.0,393.0,993.0,1993.0,-15308987.0,0.0,0.0,0.0,1.0,0.0,0.0,0.0,-0.4084607924401,-9.803059018562438,0.2561533783098934,0.5953835279635394,15307706.0,15307762.0,56.0,375.42555136739935,9.40072087260839,9.606911073995425,-3.1054992709874107,325.0,-3.079578410684952,1.0,-0.4084607924401,-9.803059018562438,0.2561533783098934,0.5953835279635394,15307706.0,15307762.0,56.0,375.42555136739935,9.40072087260839,9.606911073995425,-3.1054992709874107,-3.079578410684952,-9.634588118438494,-0.42523451856603484,0.35833333333333334
13,17733.60489,3.7744611,1,14,2,1,2,1,1,2,-40.67307692,n/a,n/a,15309986.0,15313762.0,0.0,0.0,0.0,15311430.0,15310770.0,15312763.0,15310770.0,15311163.0,15312769.0,15313763.0,3776.0,784.0,393.0,994.0,1993.0,-15312769.0,0.0,0.0,0.0,1.0,0.0,0.0,0.0,-0.3911531317434855,-9.148829444230408,0.024230724975261835,0.33230708537499865,15311417.0,15311468.0,51.0,367.44634233683945,8.763093371528782,9.272635712246558,-3.106429287873832,254.0,-3.0885583196175452,1.0,-0.3911531317434855,-9.148829444230408,0.024230724975261835,0.33230708537499865,15311417.0,15311468.0,51.0,367.44634233683945,8.763093371528782,9.272635712246558,-3.106429287873832,-3.0885583196175452,-9.547325579558137,-0.5267830603131444,0.325
14,17737.38769,3.5078386,1,15,2,1,1,1,5,2,-40.67307692,n/a,n/a,15313769.0,15317279.0,0.0,0.0,0.0,15315729.0,15314286.0,15316279.0,15314286.0,15315479.0,15316286.0,15317279.0,3510.0,517.0,1193.0,993.0,1993.0,-15316286.0,0.0,0.0,0.0,1.0,0.0,0.0,0.0,-0.19384579980208289,-9.11075259069786,0.29076869970312236,0.1765381391054684,15315713.0,15315770.0,57.0,345.31469986272697,8.91763843954764,9.104793571304254,3.1287827952966687,234.0,3.110412195530551,1.0,-0.19384579980208289,-9.11075259069786,0.29076869970312236,0.1765381391054684,15315713.0,15315770.0,57.0,345.31469986272697,8.91763843954764,9.104793571304254,3.1287827952966687,3.110412195530551,-9.438247405957688,-0.6537187374970352,0.7125
15,17740.90386,3.5911622,1,16,2,1,2,2,5,2,-40.67307692,n/a,n/a,15317285.0,15320878.0,0.0,0.0,0.0,15319585.0,15317885.0,15319878.0,15317885.0,15319079.0,15319885.0,15320878.0,3593.0,600.0,1194.0,993.0,1993.0,-15319885.0,0.0,0.0,0.0,1.0,0.0,0.0,0.0,-0.03807685353255263,-10.266904325231705,0.3011532961210934,2.2707650833958195,15319570.0,15319614.0,44.0,383.8478614342189,10.416730870976693,10.43559226527772,-2.951365896896182,491.0,-2.9490110039910444,1.0,-0.03807685353255263,-10.266904325231705,0.3011532961210934,2.2707650833958195,15319570.0,15319614.0,44.0,383.8478614342189,10.416730870976693,10.43559226527772,-2.951365896896182,-2.9490110039910444,-10.899894932203702,1.0472193367670983,0.8416666666666667
16,17744.50335,3.507947,1,17,2,1,2,1,2,2,-40.67307692,n/a,n/a,15320885.0,15324394.0,0.0,0.0,0.0,15322278.0,15321402.0,15323395.0,15321402.0,15321994.0,15323401.0,15324395.0,3509.0,517.0,592.0,994.0,1993.0,-15323401.0,0.0,0.0,0.0,1.0,0.0,0.0,0.0,-0.4949990959231723,-9.598828622342385,0.32192248895702763,1.0592288346328065,15322256.0,15322299.0,43.0,367.2057692583766,9.133637429495218,9.191105738956633,-3.060780438986469,262.0,-3.058263763366833,0.0,0.0,0.0,0.0,0.0,0.0,0.0,0.0,0.0,0.0,0.0,0.0,0.0,-9.809113196199215,-0.22213743507180797,0.425
17,17748.01963,3.5078568,1,18,2,1,1,1,2,1,-40.67307692,n/a,n/a,15324401.0,15327911.0,0.0,0.0,0.0,15325818.0,15324918.0,15326911.0,15324918.0,15325511.0,15326917.0,15327911.0,3510.0,517.0,593.0,994.0,1993.0,-15326917.0,0.0,0.0,0.0,1.0,0.0,0.0,0.0,-0.6611526386106736,-10.04536626831504,0.2526918461705697,0.6403834457747355,15325802.0,15325854.0,52.0,344.54370577029175,9.392218599688407,9.576382309840104,-3.1003029651111453,291.0,-3.0844500065845932,1.0,-1.3153822129427,-1.2426900380169184,0.2976917639817697,0.33576861751432235,15326720.0,15326739.0,19.0,23.787104394830493,0.08206094729150945,0.1670525512118745,-0.48251329502248097,-0.593749666710779,-10.147255534360603,0.1713631641982532,0.44166666666666665
18,17751.53568,3.5080019,1,19,2,1,1,1,3,1,-40.67307692,n/a,n/a,15327917.0,15331427.0,0.0,0.0,0.0,15329517.0,15328434.0,15330426.0,15328434.0,15329227.0,15330434.0,15331427.0,3510.0,517.0,793.0,993.0,1992.0,-15330434.0,0.0,0.0,0.0,1.0,0.0,0.0,0.0,-0.5226913530377578,-9.477674997466083,0.13153822129426843,0.5192298208984342,15329499.0,15329561.0,62.0,321.9271415203706,8.963371957493589,9.25154804316145,-3.0983262817061408,272.0,-3.0824413481860717,1.0,-6.531911146902304,-4.97768321634632,0.8515369062734328,0.702691024282546,15330126.0,15330159.0,33.0,102.39025090103888,1.5613390268311294,1.574860177705233,0.09547719236900819,-0.147803109650297,-9.907283552439615,-0.10789532560630583,0.5333333333333333
19,17755.05198,3.5077156,1,20,2,1,2,2,3,2,-40.67307692,n/a,n/a,15331434.0,15334943.0,0.0,0.0,0.0,15332983.0,15331950.0,15333944.0,15331950.0,15332743.0,15333950.0,15334943.0,3509.0,516.0,793.0,993.0,1994.0,-15333950.0,0.0,0.0,0.0,1.0,0.0,0.0,0.0,-0.48115296736588153,-9.141906379951765,0.3599993424895802,0.9969212561249939,15332966.0,15333010.0,44.0,318.04105282728017,8.684141822752956,8.697392778150334,-3.0681836356107337,223.0,-3.0455278031678104,1.0,-0.48115296736588153,-9.141906379951765,0.3599993424895802,0.9969212561249939,15332966.0,15333010.0,44.0,318.04105282728017,8.684141822752956,8.697392778150334,-3.0681836356107337,-3.0455278031678104,-10.027269543400111,0.03173391929597369,0.5083333333333333
20,17758.56803,3.9994354,1,21,2,1,2,2,4,1,-40.67307692,n/a,n/a,15334949.0,15338950.0,0.0,0.0,0.0,15337242.0,15335960.0,15337951.0,15335960.0,15336949.0,15337957.0,15338951.0,4001.0,1011.0,989.0,994.0,1991.0,-15337957.0,0.0,1.0,0.0,0.0,0.0,0.0,0.0,0.0,0.0,0.0,0.0,0.0,0.0,0.0,0.0,0.0,0.0,0.0,0.0,0.0,0.0,0.0,0.0,0.0,0.0,0.0,0.0,0.0,0.0,0.0,0.0,0.0,0.0,0.0,0.0,0.0
21,17762.57591,3.6660354,1,22,2,2,2,2,4,1,-40.67307692,n/a,n/a,15338957.0,15342624.0,0.0,0.0,0.0,15340900.0,15339634.0,15341625.0,15339634.0,15340624.0,15341632.0,15342625.0,3667.0,677.0,990.0,993.0,1991.0,-15341632.0,0.0,0.0,0.0,1.0,0.0,0.0,0.0,-0.5815373994062447,8.342292455768176,0.5019221602018197,0.21115346049869735,15340878.0,15340938.0,60.0,343.0086480698767,8.92856571465033,9.21028103101125,0.032571874299015105,254.0,0.04549154230182331,0.0,0.0,0.0,0.0,0.0,0.0,0.0,0.0,0.0,0.0,0.0,0.0,0.0,9.678219387878677,0.37446024769247616,0.6208333333333333
22,17766.25027,3.5078512,1,23,2,2,2,2,2,1,-40.67307692,n/a,n/a,15342632.0,15346141.0,0.0,0.0,0.0,15344092.0,15343148.0,15345141.0,15343148.0,15343742.0,15345148.0,15346141.0,3509.0,516.0,594.0,993.0,1993.0,-15345148.0,0.0,0.0,0.0,1.0,0.0,0.0,0.0,-0.6196142529387973,9.238829279852808,0.5676912708489539,-0.65769110647135,15344067.0,15344125.0,58.0,365.67982972333954,9.934307769537233,10.252910946106718,0.12366349150199836,325.0,0.13750441669938487,0.0,0.0,0.0,0.0,0.0,0.0,0.0,0.0,0.0,0.0,0.0,0.0,0.0,10.103624264920427,-0.12058889332469451,0.4583333333333333
23,17769.76658,3.5077146,1,24,2,2,2,2,5,1,-40.67307692,n/a,n/a,15346148.0,15349657.0,0.0,0.0,0.0,15348158.0,15346665.0,15348658.0,15346665.0,15347858.0,15348664.0,15349657.0,3509.0,517.0,1193.0,993.0,1993.0,-15348664.0,0.0,0.0,0.0,1.0,0.0,0.0,0.0,-0.5919219958242157,7.532293935166615,0.7407678778150986,0.4084607924401,15348126.0,15348186.0,60.0,338.665512799909,8.131009315721858,8.456180115112577,0.04088049219096877,268.0,-0.056520303255229144,0.0,0.0,0.0,0.0,0.0,0.0,0.0,0.0,0.0,0.0,0.0,0.0,0.0,9.394616136517506,0.7044930083705939,0.7291666666666666
24,17773.28276,3.5077089,1,25,2,1,1,2,2,2,-40.67307692,n/a,n/a,15349664.0,15353173.0,0.0,0.0,0.0,15351023.0,15350181.0,15352174.0,15350181.0,15350773.0,15352180.0,15353174.0,3509.0,517.0,592.0,994.0,1993.0,-15352180.0,0.0,0.0,0.0,1.0,0.0,0.0,0.0,-0.6369219136354117,-10.664980521253838,0.4846144995052052,1.2773053594101473,15351007.0,15351058.0,51.0,379.5866332440763,10.059339850964719,10.323517482559787,-3.0627093904244527,234.0,-3.054302414544299,1.0,-3.3819169001184695,-1.7930736481692577,0.5746143351276013,0.20423039622005,15352052.0,15352085.0,33.0,150.0396614766384,1.6314432694596581,1.6482455220984704,0.22902530747926142,-0.26127879857059133,-10.223610255880917,0.26021813822697404,0.4125
25,17776.7989,3.5077234,1,26,2,2,2,1,2,2,-40.67307692,n/a,n/a,15353180.0,15356690.0,0.0,0.0,0.0,15354580.0,15353697.0,15355690.0,15353697.0,15354290.0,15355696.0,15356690.0,3510.0,517.0,593.0,994.0,1993.0,-15355696.0,0.0,0.0,0.0,1.0,0.0,0.0,0.0,-0.4949990959231723,9.664597732989522,0.3011532961210934,-0.6888448957252552,15354565.0,15354606.0,41.0,414.7555782347329,10.20771787158677,10.183581054989281,0.09713795199552144,275.0,0.1007847989531924,1.0,-0.4949990959231723,9.664597732989522,0.3011532961210934,-0.6888448957252552,15354565.0,15354606.0,41.0,414.7555782347329,10.20771787158677,10.183581054989281,0.09713795199552144,0.1007847989531924,10.169071169080697,-0.19675029963503057,0.43333333333333335
26,17780.31496,3.5079937,1,27,2,1,2,2,1,1,-40.67307692,n/a,n/a,15356696.0,15360206.0,0.0,0.0,0.0,15357873.0,15357213.0,15359205.0,15357213.0,15357606.0,15359213.0,15360206.0,3510.0,517.0,393.0,993.0,1992.0,-15359213.0,0.0,0.0,0.0,1.0,0.0,0.0,0.0,-0.5330759494557249,-9.938058771996031,0.5988450601028592,0.5192298208984342,15357858.0,15357914.0,56.0,343.2526047653905,9.405319796720992,9.788911776142694,3.133127636795239,252.0,3.1048081213044165,1.0,-0.5330759494557249,-9.938058771996031,0.5988450601028592,0.5192298208984342,15357858.0,15357914.0,56.0,343.2526047653905,9.405319796720992,9.788911776142694,3.133127636795239,3.1048081213044165,-9.536417762198091,-0.5394766280315331,0.32083333333333336
27,17783.83112,3.5078415,1,28,2,2,2,1,4,1,-40.67307692,n/a,n/a,15360212.0,15363722.0,0.0,0.0,0.0,15361929.0,15360729.0,15362722.0,15360729.0,15361722.0,15362729.0,15363723.0,3510.0,517.0,993.0,994.0,1993.0,-15362729.0,0.0,0.0,0.0,1.0,0.0,0.0,0.0,-0.6057681243815065,7.968446984721305,0.4084607924401,0.2561533783098934,15361903.0,15361950.0,47.0,360.44377887683675,8.575567752957582,8.64165172406037,0.017761555497576843,181.0,-0.03445529666218574,0.0,0.0,0.0,0.0,0.0,0.0,0.0,0.0,0.0,0.0,0.0,0.0,0.0,9.76548192675903,0.2729117059453667,0.5875
28,17787.34741,3.6576812,1,29,2,1,1,2,5,2,-40.67307692,n/a,n/a,15363729.0,15367387.0,0.0,0.0,0.0,15364812.0,15364395.0,15366388.0,15364395.0,15365588.0,15366395.0,15367388.0,3658.0,666.0,1193.0,993.0,1993.0,-15366395.0,0.0,1.0,0.0,0.0,0.0,0.0,0.0,0.0,0.0,0.0,0.0,0.0,0.0,0.0,0.0,0.0,0.0,0.0,0.0,0.0,0.0,0.0,0.0,0.0,0.0,0.0,0.0,0.0,0.0,0.0,0.0,0.0,0.0,0.0,0.0,0.0
29,17791.01356,3.507707,1,30,2,2,2,1,4,1,-40.67307692,n/a,n/a,15367395.0,15370904.0,0.0,0.0,0.0,15369271.0,15367911.0,15369904.0,15367911.0,15368905.0,15369911.0,15370904.0,3509.0,516.0,994.0,993.0,1993.0,-15369911.0,0.0,0.0,0.0,1.0,0.0,0.0,0.0,-0.33923014965364207,8.349215520046823,0.7788447313476512,0.28384563542447894,15369247.0,15369296.0,49.0,399.2404612118831,8.702534818103373,9.084664976083294,0.05691059088571466,342.0,0.05833070023892789,1.0,-33.26532385889301,-0.5296144173164012,18.726888873736858,0.3599993424895802,15370487.0,15370549.0,62.0,18149.940773475486,37.53623987157437,54.98376298930393,0.511299370018842,0.8491887375002052,9.558233396918181,0.5140894925947557,0.6666666666666666
30,17794.5296,3.5078566,1,31,2,2,2,2,1,2,-40.67307692,n/a,n/a,15370911.0,15374420.0,0.0,0.0,0.0,15372137.0,15371427.0,15373420.0,15371427.0,15371820.0,15373427.0,15374420.0,3509.0,516.0,393.0,993.0,1993.0,-15373427.0,0.0,0.0,0.0,1.0,0.0,0.0,0.0,-0.4465376459726526,10.02113554333978,0.8030754563229131,-0.21115346049869735,15372120.0,15372186.0,66.0,417.4715552796395,10.516693505753954,10.713461543662229,0.0965900259878929,300.0,0.10487693873023417,0.0,0.0,0.0,0.0,0.0,0.0,0.0,0.0,0.0,0.0,0.0,0.0,0.0,10.398135333641635,-0.46331522172120093,0.3458333333333333
31,17798.04579,3.5078315,1,32,2,2,1,2,4,2,-40.67307692,n/a,n/a,15374427.0,15377936.0,0.0,0.0,0.0,15376170.0,15374944.0,15376937.0,15374944.0,15375936.0,15376943.0,15377936.0,3509.0,517.0,992.0,993.0,1993.0,-15376943.0,0.0,0.0,0.0,1.0,0.0,0.0,0.0,-0.2561533783098934,8.854599212387962,0.2976917639817697,-0.39807619602213284,15376152.0,15376200.0,48.0,375.89690785869766,9.137281095767804,9.186546964396285,0.07621983856123761,216.0,0.09471949714430077,1.0,-0.2561533783098934,8.854599212387962,0.2976917639817697,-0.39807619602213284,15376152.0,15376200.0,48.0,375.89690785869766,9.137281095767804,9.186546964396285,0.07621983856123761,0.09471949714430077,10.27814934268114,-0.3236859768189214,0.6041666666666666
32,17801.56194,3.5078762,1,33,2,1,2,2,1,1,-40.67307692,n/a,n/a,15377943.0,15381452.0,0.0,0.0,0.0,15379143.0,15378460.0,15380453.0,15378460.0,15378853.0,15380459.0,15381453.0,3509.0,517.0,393.0,994.0,1993.0,-15380459.0,0.0,0.0,0.0,1.0,0.0,0.0,0.0,-0.2526918461705697,-9.6611362008502,0.2561533783098934,0.7719216670690039,15379124.0,15379185.0,61.0,361.6201362096579,9.422570886058248,9.986856170888228,-3.0868277491743084,271.0,-3.0666550373184203,1.0,-9.671520797268165,-9.809982082841081,0.7719216670690039,0.7753831992083275,15379187.0,15379207.0,20.0,28.286834502783236,0.1385045479659643,0.17949971748434265,-3.1165978599708675,-2.451792608856192,-9.569141214278227,-0.501395924876367,0.3333333333333333
33,17805.0781,3.5078455,1,34,2,1,1,2,2,2,-40.67307692,n/a,n/a,15381459.0,15384969.0,0.0,0.0,0.0,15382852.0,15381976.0,15383968.0,15381976.0,15382569.0,15383975.0,15384969.0,3510.0,517.0,593.0,994.0,1992.0,-15383975.0,0.0,0.0,0.0,1.0,0.0,0.0,0.0,-0.35653781035025656,-11.101133570808523,0.49153756378385255,1.3984589842864485,15382827.0,15382892.0,65.0,396.28538184523677,10.782803184637297,11.246503004845348,-3.0573850398075177,258.0,-3.0423221390170774,1.0,-1.8899965480703012,-1.9384579980208207,0.20423039622005,0.32192248895702763,15384192.0,15384214.0,22.0,28.168923049530104,0.12727898814853955,0.15926809931390465,-1.96140337049258,2.3100733741778408,-10.190886803800783,0.22213743507180797,0.425
34,17808.5943,3.5079769,1,35,2,2,1,2,2,2,-40.67307692,n/a,n/a,15384975.0,15388485.0,0.0,0.0,0.0,15386318.0,15385492.0,15387485.0,15385492.0,15386085.0,15387492.0,15388485.0,3510.0,517.0,593.0,993.0,1993.0,-15387492.0,0.0,0.0,0.0,1.0,0.0,0.0,0.0,-1.0523057703541592,7.958062388303337,0.0692306427864579,-0.38423006746484206,15386295.0,15386346.0,51.0,375.8313786296211,9.021771498452535,9.182303680839011,0.05028412236827609,210.0,0.07093144417559494,0.0,0.0,0.0,0.0,0.0,0.0,0.0,0.0,0.0,0.0,0.0,0.0,0.0,9.74366629203894,0.298298841382144,0.4
35,17812.11047,3.5078561,1,36,2,1,2,2,2,2,-40.67307692,n/a,n/a,15388491.0,15392000.0,0.0,0.0,0.0,15389868.0,15389008.0,15391001.0,15389008.0,15389602.0,15391008.0,15392001.0,3509.0,517.0,594.0,993.0,1993.0,-15391008.0,0.0,0.0,0.0,1.0,0.0,0.0,0.0,-0.4742299030872381,-9.993443286225197,0.7961523920442657,1.4192281771223867,15389842.0,15389900.0,58.0,359.1389408754229,9.539583160058072,10.129174714402467,-3.076231344164079,240.0,-3.0622259525328515,1.0,0.10730749631901051,-33.26532385889301,0.35653781035025656,18.726888873736858,15390800.0,15390824.0,24.0,17682.376649432874,38.094649516210936,54.495654204360775,-2.638395139082368,-2.330635066712981,-9.787297561479123,-0.24752457050858534,0.4166666666666667
36,17815.62663,3.5078629,1,37,2,2,1,1,4,1,-40.67307692,n/a,n/a,15392008.0,15395517.0,0.0,0.0,0.0,15393784.0,15392524.0,15394517.0,15392524.0,15393518.0,15394524.0,15395517.0,3509.0,516.0,994.0,993.0,1993.0,-15394524.0,0.0,0.0,0.0,1.0,0.0,0.0,0.0,-0.5123067566197868,9.069214205025983,0.2561533783098934,-0.5711528029882775,15393766.0,15393815.0,49.0,398.6380894025685,9.617171073453536,9.960907434312668,0.08613031280847298,248.0,0.09361734145262407,0.0,0.0,0.0,0.0,0.0,0.0,0.0,0.0,0.0,0.0,0.0,0.0,0.0,10.32178061212132,-0.37446024769247616,0.6208333333333333
37,17819.14293,3.507725,1,38,2,1,2,1,5,2,-40.67307692,n/a,n/a,15395524.0,15399033.0,0.0,0.0,0.0,15397484.0,15396040.0,15398033.0,15396040.0,15397234.0,15398040.0,15399033.0,3509.0,516.0,1194.0,993.0,1993.0,-15398040.0,0.0,0.0,0.0,1.0,0.0,0.0,0.0,-0.10730749631901051,-11.526902023945238,0.2007688640807263,2.346918790460923,15397465.0,15397523.0,58.0,375.55851251939396,11.619513702470194,11.591469510323694,-2.9558237973895425,231.0,-2.9541534239894456,0.0,0.0,0.0,0.0,0.0,0.0,0.0,0.0,0.0,0.0,0.0,0.0,0.0,-10.56175259404231,0.6537187374970352,0.7125
38,17822.6591,3.9993163,1,39,2,1,2,1,5,1,-40.67307692,n/a,n/a,15399040.0,15403041.0,0.0,0.0,0.0,15401506.0,15400050.0,15402042.0,15400050.0,15401240.0,15402048.0,15403041.0,4001.0,1010.0,1190.0,993.0,1992.0,-15402048.0,0.0,1.0,0.0,0.0,0.0,0.0,0.0,0.0,0.0,0.0,0.0,0.0,0.0,0.0,0.0,0.0,0.0,0.0,0.0,0.0,0.0,0.0,0.0,0.0,0.0,0.0,0.0,0.0,0.0,0.0,0.0,0.0,0.0,0.0,0.0,0.0
39,17826.66687,3.5077403,1,40,2,1,1,2,2,2,-40.67307692,n/a,n/a,15403048.0,15406557.0,0.0,0.0,0.0,15404458.0,15403564.0,15405557.0,15403564.0,15404158.0,15405564.0,15406558.0,3509.0,516.0,594.0,994.0,1993.0,-15405564.0,0.0,0.0,0.0,1.0,0.0,0.0,0.0,-0.6196142529387973,-10.633826731999934,0.3530762782109368,1.2599976987135328,15404442.0,15404494.0,52.0,343.3403479654034,10.055195574366032,10.235615328131095,-3.051275605708638,284.0,-3.0443805025342705,1.0,-0.872306099109371,-33.26532385889301,-0.05884604636849078,18.726888873736858,15405502.0,15405526.0,24.0,16676.50804312838,37.446113764636834,51.45391953850074,-2.616060036865271,-2.329361681894198,-10.158163351720647,0.1840567319166419,0.4375
40,17830.18296,3.5078177,1,41,2,2,2,2,4,1,-40.67307692,n/a,n/a,15406564.0,15410074.0,0.0,0.0,0.0,15408324.0,15407080.0,15409073.0,15407080.0,15408074.0,15409080.0,15410074.0,3510.0,516.0,994.0,994.0,1993.0,-15409080.0,0.0,0.0,0.0,1.0,0.0,0.0,0.0,-0.9726905311497341,7.829985699148389,0.33923014965364207,0.09692289990103947,15408305.0,15408360.0,55.0,367.51563077904115,8.806010539327003,9.14997732262473,0.027519594227108413,231.0,0.042004812329457616,1.0,-0.9726905311497341,7.829985699148389,0.33923014965364207,0.09692289990103947,15408305.0,15408360.0,55.0,367.51563077904115,8.806010539327003,9.14997732262473,0.027519594227108413,0.042004812329457616,9.700035022598767,0.3490731122556988,0.6125
41,17833.69908,3.5078528,1,42,2,1,1,1,2,2,-40.67307692,n/a,n/a,15410080.0,15413589.0,0.0,0.0,0.0,15411440.0,15410597.0,15412589.0,15410597.0,15411190.0,15412596.0,15413589.0,3509.0,517.0,593.0,993.0,1992.0,-15412596.0,0.0,0.0,0.0,1.0,0.0,0.0,0.0,-0.5746143351276013,-10.872672449613212,0.22153805691666445,0.9796135954283796,15411421.0,15411484.0,63.0,371.23038209990955,10.32592269249643,10.85423553777642,-3.0681117464793983,231.0,-3.044811690212896,1.0,-0.5746143351276013,-10.872672449613212,0.22153805691666445,0.9796135954283796,15411421.0,15411484.0,63.0,371.23038209990955,10.32592269249643,10.85423553777642,-3.0681117464793983,-3.044811690212896,-10.223610255880917,0.26021813822697404,0.4125
42,17837.21538,3.5076938,1,43,2,2,2,1,4,1,-40.67307692,n/a,n/a,15413596.0,15417105.0,0.0,0.0,0.0,15415372.0,15414113.0,15416106.0,15414113.0,15415106.0,15416113.0,15417105.0,3509.0,517.0,993.0,992.0,1993.0,-15416113.0,0.0,0.0,0.0,1.0,0.0,0.0,0.0,-0.6299988493567683,7.175756124816359,0.33923014965364207,0.26307644258854074,15415352.0,15415404.0,52.0,332.46930509926887,7.80612644683189,8.05031376590713,0.009755788045514219,246.0,-0.023651502825137977,1.0,-0.6299988493567683,7.175756124816359,0.33923014965364207,0.26307644258854074,15415352.0,15415404.0,52.0,332.46930509926887,7.80612644683189,8.05031376590713,0.009755788045514219,-0.023651502825137977,9.678219387878677,0.37446024769247616,0.6208333333333333
43,17840.73144,3.9160967,1,44,2,2,2,2,1,1,-40.67307692,n/a,n/a,15417112.0,15421030.0,0.0,0.0,0.0,15418756.0,15418039.0,15420030.0,15418039.0,15418429.0,15420037.0,15421031.0,3918.0,927.0,390.0,994.0,1991.0,-15420037.0,0.0,1.0,0.0,0.0,0.0,0.0,0.0,0.0,0.0,0.0,0.0,0.0,0.0,0.0,0.0,0.0,0.0,0.0,0.0,0.0,0.0,0.0,0.0,0.0,0.0,0.0,0.0,0.0,0.0,0.0,0.0,0.0,0.0,0.0,0.0,0.0
44,17844.65587,3.5078829,1,45,2,1,1,1,3,2,-40.67307692,n/a,n/a,15421037.0,15424546.0,0.0,0.0,0.0,15422580.0,15421553.0,15423546.0,15421553.0,15422347.0,15423553.0,15424546.0,3509.0,516.0,794.0,993.0,1993.0,-15423553.0,0.0,0.0,0.0,1.0,0.0,0.0,0.0,-0.7649986027903605,-9.664597732989522,0.2388457176132789,1.0003827882643157,15422558.0,15422618.0,60.0,337.2107991929593,8.932121998059445,9.14458569291315,-3.056230776535902,211.0,-3.035784487294936,0.0,0.0,0.0,0.0,0.0,0.0,0.0,0.0,0.0,0.0,0.0,0.0,0.0,-9.983638273959931,-0.019040351577585,0.5041666666666667
45,17848.17205,3.5078367,1,46,2,2,2,2,3,2,-40.67307692,n/a,n/a,15424553.0,15428062.0,0.0,0.0,0.0,15426103.0,15425070.0,15427062.0,15425070.0,15425863.0,15427069.0,15428062.0,3509.0,517.0,793.0,993.0,1992.0,-15427069.0,0.0,0.0,0.0,1.0,0.0,0.0,0.0,-0.8169215848802038,8.67459954114317,0.498460628062496,0.1765381391054684,15426079.0,15426124.0,45.0,396.3471094890091,9.496978855122522,9.502069655154026,0.033903852538774884,216.0,0.03862460166792368,1.0,-0.8169215848802038,8.67459954114317,0.498460628062496,0.1765381391054684,15426079.0,15426124.0,45.0,396.3471094890091,9.496978855122522,9.502069655154026,0.033903852538774884,0.03862460166792368,9.983638273959931,0.019040351577585,0.5041666666666667
46,17851.68839,3.507681054,1,47,2,2,2,2,3,2,-40.67307692,n/a,n/a,15428070.0,15431578.0,0.0,0.0,0.0,15429919.0,15428586.0,15430579.0,15428586.0,15429378.0,15430585.0,15431579.0,3508.0,516.0,792.0,994.0,1993.0,-15430585.0,0.0,0.0,0.0,1.0,0.0,0.0,0.0,0.010384596417967108,8.214215766613227,0.8446138419947854,0.5123067566197868,15429897.0,15429941.0,44.0,372.3650675237517,8.21055868184728,8.179917587488317,0.04048419713988091,519.0,-0.05885522135363387,0.0,0.0,0.0,0.0,0.0,0.0,0.0,0.0,0.0,0.0,0.0,0.0,0.0,9.590956848998317,0.47600878943958963,0.6541666666666667
47,17855.20454,3.7160091,1,48,2,2,2,2,4,2,-40.67307692,n/a,n/a,15431585.0,15435303.0,0.0,0.0,0.0,15433618.0,15432312.0,15434303.0,15432312.0,15433302.0,15434310.0,15435303.0,3718.0,727.0,990.0,993.0,1991.0,-15434310.0,0.0,0.0,0.0,1.0,0.0,0.0,0.0,-0.2284611211953118,8.006523838253853,0.4776914352265578,0.30461482826041314,15433599.0,15433651.0,52.0,386.87515074500135,8.236803554427706,8.440729462676682,0.021014140345415724,297.0,0.044715657707690044,0.0,0.0,0.0,0.0,0.0,0.0,0.0,0.0,0.0,0.0,0.0,0.0,0.0,9.623680301078453,0.43792808628442353,0.6416666666666667
48,17858.92888,3.507855,1,49,2,2,2,1,2,2,-40.67307692,n/a,n/a,15435310.0,15438819.0,0.0,0.0,0.0,15436803.0,15435826.0,15437819.0,15435826.0,15436419.0,15437826.0,15438819.0,3509.0,516.0,593.0,993.0,1993.0,-15437826.0,0.0,0.0,0.0,1.0,0.0,0.0,0.0,-0.6680757028893171,9.283829197664005,0.7753831992083275,0.3080763603997368,15436782.0,15436822.0,40.0,424.7807552111303,9.962870411244667,9.942263927204857,0.04692205561257179,363.0,0.06026874272594074,1.0,-0.6680757028893171,9.283829197664005,0.7753831992083275,0.3080763603997368,15436782.0,15436822.0,40.0,424.7807552111303,9.962870411244667,9.942263927204857,0.04692205561257179,0.06026874272594074,10.049085178120201,-0.057121054732751066,0.4791666666666667
49,17862.44507,3.5578238,1,50,2,2,2,1,3,2,-40.67307692,n/a,n/a,15438826.0,15442385.0,0.0,0.0,0.0,15440452.0,15439392.0,15441386.0,15439392.0,15440185.0,15441392.0,15442385.0,3559.0,566.0,793.0,993.0,1994.0,-15441392.0,0.0,0.0,0.0,1.0,0.0,0.0,0.0,-0.4049992603007802,9.058829608608017,0.27346103900650787,0.2561533783098934,15440430.0,15440478.0,48.0,356.6969418364466,9.463844695212952,9.52365317881956,0.0018288201995951786,245.0,0.030535959971286417,0.0,0.0,0.0,0.0,0.0,0.0,0.0,0.0,0.0,0.0,0.0,0.0,0.0,9.940007004519751,0.06981462245113976,0.5208333333333334
50,17866.0113,3.5077684,1,51,2,2,1,1,5,1,-40.67307692,n/a,n/a,15442392.0,15445901.0,0.0,0.0,0.0,15444418.0,15442909.0,15444902.0,15442909.0,15444101.0,15444908.0,15445901.0,3509.0,517.0,1192.0,993.0,1993.0,-15444908.0,0.0,0.0,0.0,1.0,0.0,0.0,0.0,-0.7407678778150986,9.065752672886664,0.4257684531367144,-0.6507680421927026,15444398.0,15444444.0,46.0,376.98620755297037,9.865433398341512,9.8688815515182,0.10933980098132284,297.0,0.1124777250309272,0.0,0.0,0.0,0.0,0.0,0.0,0.0,0.0,0.0,0.0,0.0,0.0,0.0,10.64901513292267,-0.7552672792441486,0.7458333333333333
51,17869.5274,3.9994483,1,52,2,2,2,2,3,1,-40.67307692,n/a,n/a,15445908.0,15449909.0,0.0,0.0,0.0,15448051.0,15446918.0,15448909.0,15446918.0,15447708.0,15448916.0,15449910.0,4001.0,1010.0,790.0,994.0,1991.0,-15448916.0,0.0,1.0,0.0,0.0,0.0,0.0,0.0,0.0,0.0,0.0,0.0,0.0,0.0,0.0,0.0,0.0,0.0,0.0,0.0,0.0,0.0,0.0,0.0,0.0,0.0,0.0,0.0,0.0,0.0,0.0,0.0,0.0,0.0,0.0,0.0,0.0
52,17873.53517,3.5078474,1,53,2,2,2,2,5,2,-40.67307692,n/a,n/a,15449916.0,15453426.0,0.0,0.0,0.0,15451016.0,15450432.0,15452425.0,15450432.0,15451626.0,15452432.0,15453426.0,3510.0,516.0,1194.0,994.0,1993.0,-15452432.0,0.0,0.0,0.0,0.0,0.0,1.0,0.0,-0.5815373994062447,9.20421395845958,0.39807619602213284,-0.8549984384127565,15450995.0,15451042.0,47.0,398.24338468806036,9.865653839327475,9.88370781358035,0.12735785783358172,-631.0,0.1409064655274814,0.0,0.0,0.0,0.0,0.0,0.0,0.0,0.0,0.0,0.0,0.0,0.0,0.0,0.0,0.0,0.0
53,17877.05134,3.5744975,1,54,2,2,2,1,5,2,-40.67307692,n/a,n/a,15453432.0,15457008.0,0.0,0.0,0.0,15455465.0,15454015.0,15456008.0,15454015.0,15455208.0,15456015.0,15457008.0,3576.0,583.0,1193.0,993.0,1993.0,-15456015.0,0.0,1.0,0.0,0.0,0.0,0.0,0.0,0.0,0.0,0.0,0.0,0.0,0.0,0.0,0.0,0.0,0.0,0.0,0.0,0.0,0.0,0.0,0.0,0.0,0.0,0.0,0.0,0.0,0.0,0.0,0.0,0.0,0.0,0.0,0.0,0.0
54,17880.63429,3.5077111,1,55,2,2,1,1,1,2,-40.67307692,n/a,n/a,15457015.0,15460524.0,0.0,0.0,0.0,15458307.0,15457531.0,15459525.0,15457531.0,15457924.0,15459531.0,15460524.0,3509.0,516.0,393.0,993.0,1994.0,-15459531.0,0.0,0.0,0.0,1.0,0.0,0.0,0.0,-0.578075867266925,7.681139817157506,0.21807652477734077,-0.43269151741536177,15458292.0,15458343.0,51.0,358.68639222689364,8.284813985032,8.601071543202224,0.0786305060622527,368.0,0.0886558818674375,1.0,-0.578075867266925,7.681139817157506,0.21807652477734077,-0.43269151741536177,15458292.0,15458343.0,51.0,358.68639222689364,8.284813985032,8.601071543202224,0.0786305060622527,0.0886558818674375,9.689127205238723,0.36176667997408746,0.37916666666666665
55,17884.15036,3.507824,1,56,2,1,2,1,3,2,-40.67307692,n/a,n/a,15460531.0,15464041.0,0.0,0.0,0.0,15462164.0,15461047.0,15463041.0,15461047.0,15461841.0,15463047.0,15464041.0,3510.0,516.0,794.0,994.0,1994.0,-15463047.0,0.0,0.0,0.0,1.0,0.0,0.0,0.0,-1.0107673846822867,-11.353825416979094,0.1765381391054684,1.4538434985156157,15462154.0,15462210.0,56.0,365.8545449362441,10.421629356326072,10.85184804878773,-3.0187207873586073,313.0,-3.01525942225663,0.0,0.0,0.0,0.0,0.0,0.0,0.0,0.0,0.0,0.0,0.0,0.0,0.0,-10.147255534360603,0.1713631641982532,0.5541666666666667
56,17887.66651,3.507846,1,57,2,1,1,2,1,1,-40.67307692,n/a,n/a,15464047.0,15467557.0,0.0,0.0,0.0,15465340.0,15464564.0,15466556.0,15464564.0,15464957.0,15466563.0,15467557.0,3510.0,517.0,393.0,994.0,1992.0,-15466563.0,0.0,0.0,0.0,1.0,0.0,0.0,0.0,-0.8446138419947854,-10.796518742548107,0.19384579980208289,1.4019205164257722,15465318.0,15465367.0,49.0,342.8528712509532,10.024961629383059,10.074137371316203,-3.020792400162506,361.0,-3.009608774101065,1.0,-0.7892293277656184,-0.1349997534335921,0.26307644258854074,0.11423056059765394,15467407.0,15467439.0,32.0,105.31000035901263,0.6709481593359574,0.8297358244710724,0.22370527710280663,-0.2702769085002823,-10.321780612121323,0.37446024769247616,0.375
57,17891.18285,3.5076747,1,58,2,1,2,1,2,2,-40.67307692,n/a,n/a,15467563.0,15471072.0,0.0,0.0,0.0,15468973.0,15468080.0,15470072.0,15468080.0,15468673.0,15470079.0,15471072.0,3509.0,517.0,593.0,993.0,1992.0,-15470079.0,0.0,0.0,0.0,1.0,0.0,0.0,0.0,-0.7996139241835893,-10.422673271501235,0.19384579980208289,1.0488442382148373,15468945.0,15469018.0,73.0,336.68380397203424,9.660967525651133,9.944202870672413,-3.0529764265665706,272.0,-3.0334725223824455,0.0,0.0,0.0,0.0,0.0,0.0,0.0,0.0,0.0,0.0,0.0,0.0,0.0,-9.830928830919305,-0.19675029963503057,0.43333333333333335
58,17894.69884,3.757821,1,59,2,2,1,2,5,1,-40.67307692,n/a,n/a,15471079.0,15474838.0,0.0,0.0,0.0,15473305.0,15471846.0,15473839.0,15471846.0,15473039.0,15473845.0,15474838.0,3759.0,767.0,1193.0,993.0,1993.0,-15473845.0,0.0,0.0,0.0,1.0,0.0,0.0,0.0,-0.9484598061744722,8.075754481040311,0.12461515701562499,-0.5261528851770815,15473287.0,15473334.0,47.0,352.01510779561096,9.047648453952593,9.090299754776302,0.07198892354694672,248.0,0.08769499207551021,0.0,0.0,0.0,0.0,0.0,0.0,0.0,0.0,0.0,0.0,0.0,0.0,0.0,10.5835682287624,-0.6791058729338165,0.7208333333333333
59,17898.46499,3.5078634,1,60,2,1,2,2,3,2,-40.67307692,n/a,n/a,15474845.0,15478355.0,0.0,0.0,0.0,15476462.0,15475362.0,15477355.0,15475362.0,15476156.0,15477362.0,15478355.0,3510.0,517.0,794.0,993.0,1993.0,-15477362.0,0.0,0.0,0.0,1.0,0.0,0.0,0.0,-0.45346071025129997,-11.436902188322842,0.21807652477734077,1.2426900380169184,15476450.0,15476526.0,76.0,366.9627709474722,11.031129568350448,11.354372600261447,-3.0485747492247395,294.0,-3.033460424524786,0.0,0.0,0.0,0.0,0.0,0.0,0.0,0.0,0.0,0.0,0.0,0.0,0.0,-10.125439899640517,0.14597602876147583,0.5458333333333333
60,17901.98119,3.5078393,1,61,2,1,2,2,4,2,-40.67307692,n/a,n/a,15478362.0,15481871.0,0.0,0.0,0.0,15480128.0,15478878.0,15480871.0,15478878.0,15479871.0,15480878.0,15481871.0,3509.0,516.0,993.0,993.0,1993.0,-15480878.0,0.0,0.0,0.0,1.0,0.0,0.0,0.0,-0.7373063456757749,-10.654595924835867,0.08653830348307236,1.5369202698593643,15480102.0,15480174.0,72.0,345.48526300650764,10.022786062034195,10.379117097806146,-2.9963743256649753,231.0,-2.989932218832318,0.0,0.0,0.0,0.0,0.0,0.0,0.0,0.0,0.0,0.0,0.0,0.0,0.0,-10.299964977401233,0.3490731122556988,0.6125
61,17905.49735,3.7578029,1,62,2,2,1,2,2,1,-40.67307692,n/a,n/a,15481878.0,15485637.0,0.0,0.0,0.0,15483554.0,15482644.0,15484638.0,15482644.0,15483237.0,15484644.0,15485637.0,3759.0,766.0,593.0,993.0,1994.0,-15484644.0,0.0,1.0,0.0,0.0,0.0,0.0,0.0,0.0,0.0,0.0,0.0,0.0,0.0,0.0,0.0,0.0,0.0,0.0,0.0,0.0,0.0,0.0,0.0,0.0,0.0,0.0,0.0,0.0,0.0,0.0,0.0,0.0,0.0,0.0,0.0,0.0
62,17909.26349,3.5078143,1,63,2,2,2,2,5,2,-40.67307692,n/a,n/a,15485644.0,15489153.0,0.0,0.0,0.0,15487237.0,15486160.0,15488154.0,15486160.0,15487353.0,15488160.0,15489154.0,3509.0,516.0,1193.0,994.0,1994.0,-15488160.0,0.0,0.0,0.0,0.0,1.0,0.0,0.0,0.0,0.0,0.0,0.0,0.0,0.0,0.0,0.0,0.0,0.0,0.0,0.0,0.0,0.0,0.0,0.0,0.0,0.0,0.0,0.0,0.0,0.0,0.0,0.0,0.0,0.0,0.0,0.0,0.0
63,17912.77963,3.816161,1,64,2,1,1,2,4,2,-40.67307692,n/a,n/a,15489160.0,15492977.0,0.0,0.0,0.0,15490820.0,15489987.0,15491978.0,15489987.0,15490978.0,15491985.0,15492978.0,3817.0,827.0,991.0,993.0,1991.0,-15491985.0,0.0,0.0,0.0,0.0,1.0,0.0,0.0,0.0,0.0,0.0,0.0,0.0,0.0,0.0,0.0,0.0,0.0,0.0,0.0,0.0,0.0,0.0,0.0,0.0,0.0,0.0,0.0,0.0,0.0,0.0,0.0,0.0,0.0,0.0,0.0,0.0
64,17916.60426,3.5077318,1,65,2,2,2,1,3,1,-40.67307692,n/a,n/a,15492985.0,15496494.0,0.0,0.0,0.0,15495177.0,15493501.0,15495494.0,15493501.0,15494295.0,15495501.0,15496494.0,3509.0,516.0,794.0,993.0,1993.0,-15495501.0,0.0,0.0,0.0,0.0,0.0,0.0,1.0,-1.041921173936192,6.753449203818964,0.7649986027903605,0.9242290811992143,15495153.0,15495205.0,52.0,390.205764296618,7.796996451944612,8.278567293230878,-0.020423447613180774,858.0,-0.05480269183603498,0.0,0.0,0.0,0.0,0.0,0.0,0.0,0.0,0.0,0.0,0.0,0.0,0.0,0.0,0.0,0.0
65,17920.12032,3.9161084,1,66,2,1,1,1,4,1,-40.67307692,n/a,n/a,15496501.0,15500418.0,0.0,0.0,0.0,15498744.0,15497427.0,15499418.0,15497427.0,15498417.0,15499425.0,15500418.0,3917.0,926.0,990.0,993.0,1991.0,-15499425.0,0.0,0.0,0.0,1.0,0.0,0.0,0.0,-0.8861522276666618,-10.703057374786392,0.5746143351276013,0.6057681243815065,15498723.0,15498765.0,42.0,378.8972446927743,9.816954580017711,9.746731019071738,-3.1384191804631416,306.0,3.118861223286224,1.0,-0.8861522276666618,-10.703057374786392,0.5746143351276013,0.6057681243815065,15498723.0,15498765.0,42.0,378.8972446927743,9.816954580017711,9.746731019071738,-3.1384191804631416,3.118861223286224,-9.601864666358358,-0.46331522172120093,0.65
66,17924.04475,3.6744812,1,67,2,2,1,1,1,1,-40.67307692,n/a,n/a,15500425.0,15504101.0,0.0,0.0,0.0,15501908.0,15501108.0,15503101.0,15501108.0,15501501.0,15503108.0,15504101.0,3676.0,683.0,393.0,993.0,1993.0,-15503108.0,0.0,0.0,0.0,1.0,0.0,0.0,0.0,-0.9311521454778579,8.009985370393181,0.41538385671874734,0.2699995068671842,15501882.0,15501927.0,45.0,382.8432985352034,8.942319424338312,8.895522043616717,0.01625872980512976,381.0,-0.0252962767121444,1.0,-1.3569205986145763,-1.2011516523450458,0.7199986849791604,0.7442294099544223,15502674.0,15502698.0,24.0,25.04798503578289,0.15764229335665786,0.2130741040194268,-0.15431877592612891,-0.7509290623979457,9.710942839958813,0.3363795445373101,0.3875
67,17927.72757,3.5078177,1,68,2,1,2,1,4,1,-40.67307692,n/a,n/a,15504108.0,15507617.0,0.0,0.0,0.0,15505891.0,15504624.0,15506617.0,15504624.0,15505617.0,15506624.0,15507617.0,3509.0,516.0,993.0,993.0,1993.0,-15506624.0,0.0,0.0,0.0,1.0,0.0,0.0,0.0,-0.6369219136354117,-11.090748974390554,0.4223069209973947,1.8138428410051959,15505875.0,15505934.0,59.0,336.909124914418,10.546035863434582,10.665108038796527,-3.009258022209378,258.0,-3.0041938703069935,1.0,-0.6369219136354117,-11.090748974390554,0.4223069209973947,1.8138428410051959,15505875.0,15505934.0,59.0,336.909124914418,10.546035863434582,10.665108038796527,-3.009258022209378,-3.0041938703069935,-10.332688429481369,0.38715381541086485,0.625
68,17931.24373,3.6745763,1,69,2,2,2,2,5,2,-40.67307692,n/a,n/a,15507624.0,15511301.0,0.0,0.0,0.0,15509840.0,15508307.0,15510300.0,15508307.0,15509500.0,15510307.0,15511301.0,3677.0,683.0,1193.0,994.0,1993.0,-15510307.0,0.0,0.0,0.0,1.0,0.0,0.0,0.0,-0.9726905311497341,8.26613874870307,0.328845553235675,0.6438449779140591,15509817.0,15509860.0,43.0,358.2444210603571,9.244197699087422,9.25399686045413,-0.03408196428215338,317.0,-0.05726217184740948,0.0,0.0,0.0,0.0,0.0,0.0,0.0,0.0,0.0,0.0,0.0,0.0,0.0,9.329169232357236,0.780654414680926,0.7541666666666667
69,17934.92657,3.5078142,1,70,2,1,2,1,3,2,-40.67307692,n/a,n/a,15511307.0,15514816.0,0.0,0.0,0.0,15513017.0,15511823.0,15513816.0,15511823.0,15512616.0,15513823.0,15514816.0,3509.0,516.0,793.0,993.0,1993.0,-15513823.0,0.0,0.0,0.0,1.0,0.0,0.0,0.0,-1.2530746344348893,-12.22266998394914,0.2423072497526026,1.4988434163268136,15513004.0,15513083.0,79.0,319.47105872311295,11.041327151660425,11.468032991224986,-3.0275425635627107,388.0,-3.0211687507363143,0.0,0.0,0.0,0.0,0.0,0.0,0.0,0.0,0.0,0.0,0.0,0.0,0.0,-10.245425890601007,0.2856052736637553,0.5916666666666667
70,17938.44269,3.5078667,1,71,2,1,2,1,2,2,-40.67307692,n/a,n/a,15514823.0,15518332.0,0.0,0.0,0.0,15516316.0,15515339.0,15517333.0,15515339.0,15515932.0,15517339.0,15518332.0,3509.0,516.0,593.0,993.0,1994.0,-15517339.0,0.0,0.0,0.0,1.0,0.0,0.0,0.0,-1.211536248763013,-11.277671709913989,0.01384612855729079,1.4226897092617103,15516304.0,15516363.0,59.0,384.9431950956425,10.16424730893209,10.635145570584344,-3.0025371845560804,372.0,-3.0008463464638724,1.0,-1.211536248763013,-11.277671709913989,0.01384612855729079,1.4226897092617103,15516304.0,15516363.0,59.0,384.9431950956425,10.16424730893209,10.635145570584344,-3.0025371845560804,-3.0008463464638724,-9.961822639239841,-0.04442748701436238,0.48333333333333334
71,17941.95888,3.5078401,1,72,2,1,2,1,3,1,-40.67307692,n/a,n/a,15518339.0,15521848.0,0.0,0.0,0.0,15520015.0,15518856.0,15520849.0,15518856.0,15519648.0,15520855.0,15521849.0,3509.0,517.0,792.0,994.0,1993.0,-15520855.0,0.0,0.0,0.0,1.0,0.0,0.0,0.0,-0.8757676312486907,-11.793439998673103,0.2561533783098934,1.121536413140617,15519996.0,15520046.0,50.0,354.7690498203605,10.951915710020572,10.921374722995548,-3.0624936066257695,348.0,-3.0438162657758947,1.0,-0.8757676312486907,-11.793439998673103,0.2561533783098934,1.121536413140617,15519996.0,15520046.0,50.0,354.7690498203605,10.951915710020572,10.921374722995548,-3.0624936066257695,-3.0438162657758947,-10.190886803800783,0.22213743507180797,0.5708333333333333
72,17945.47505,3.5079061,1,73,2,1,1,2,1,2,-40.67307692,n/a,n/a,15521855.0,15525365.0,0.0,0.0,0.0,15523448.0,15522372.0,15524364.0,15522372.0,15522765.0,15524371.0,15525365.0,3510.0,517.0,393.0,994.0,1992.0,-15524371.0,0.0,0.0,0.0,1.0,0.0,0.0,0.0,-0.9726905311497341,-10.166519893191342,0.578075867266925,0.9899981918463486,15523435.0,15523485.0,50.0,368.19423868147453,9.203052664188407,9.627305013377729,-3.0968183809258236,670.0,-3.0746657325645264,1.0,-1.7930736481692577,-1.6615354268749893,-0.0,0.0692306427864579,15524930.0,15524955.0,25.0,45.80993371124143,0.14864449388351408,0.19098123275276419,-0.48447792903702813,0.8110335719191168,-9.907283552439615,-0.10789532560630583,0.5333333333333333
73,17948.9912,3.6828781,1,74,2,1,2,1,3,1,-40.67307692,n/a,n/a,15525371.0,15529056.0,0.0,0.0,0.0,15526598.0,15526064.0,15528055.0,15526064.0,15526856.0,15528063.0,15529056.0,3685.0,693.0,792.0,993.0,1991.0,-15528063.0,0.0,0.0,0.0,0.0,0.0,1.0,0.0,-1.2634592308528565,-11.201518002848887,0.15923047840885393,-0.03461532139322895,15526578.0,15526636.0,58.0,390.98546507320697,9.93994911203011,10.514441337445586,3.122089727887989,-278.0,3.0935084542069275,0.0,0.0,0.0,0.0,0.0,0.0,0.0,0.0,0.0,0.0,0.0,0.0,0.0,0.0,0.0,0.0
74,17952.6824,3.6661571,1,75,2,2,1,2,4,2,-40.67307692,n/a,n/a,15529062.0,15532730.0,0.0,0.0,0.0,15531406.0,15529739.0,15531731.0,15529739.0,15530729.0,15531737.0,15532730.0,3668.0,677.0,990.0,993.0,1992.0,-15531737.0,0.0,0.0,0.0,1.0,0.0,0.0,0.0,-0.7511524742330696,9.304598390499939,0.2526918461705697,-1.7861505838906142,15531381.0,15531435.0,54.0,452.7106785365039,10.260360807895424,10.513630484339034,0.20004210653576782,652.0,0.2139907427338778,1.0,-1.561150994834626,-1.6234585733424367,1.2946130201067616,1.1976901202057222,15532039.0,15532058.0,19.0,24.09987741524992,0.11522275324229103,0.17999967124478905,2.1421338066285194,1.9655874464946614,10.845355845403473,-0.983751498175153,0.8208333333333333
75,17956.3569,3.999486,1,76,2,2,1,1,2,1,-40.67307692,n/a,n/a,15532737.0,15536738.0,0.0,0.0,0.0,15534846.0,15533747.0,15535738.0,15533747.0,15534337.0,15535745.0,15536738.0,4001.0,1010.0,590.0,993.0,1991.0,-15535745.0,0.0,0.0,0.0,1.0,0.0,0.0,0.0,-1.3084591486640524,7.881908681238232,0.3530762782109368,-0.8757676312486907,15534825.0,15534870.0,45.0,408.598480846237,9.272158227873318,9.277193513598668,0.13292158285336114,488.0,0.13962804894713082,0.0,0.0,0.0,0.0,0.0,0.0,0.0,0.0,0.0,0.0,0.0,0.0,0.0,10.103624264920427,-0.12058889332469451,0.5375
76,17960.36466,3.507847,1,77,2,2,2,1,2,1,-40.67307692,n/a,n/a,15536745.0,15540254.0,0.0,0.0,0.0,15538161.0,15537261.0,15539254.0,15537261.0,15537855.0,15539261.0,15540255.0,3509.0,516.0,594.0,994.0,1993.0,-15539261.0,0.0,0.0,0.0,1.0,0.0,0.0,0.0,-1.2253823773203039,8.248831088006456,0.294230231842446,-0.6057681243815065,15538132.0,15538200.0,68.0,422.44915718798006,9.516864915915571,9.938064197593516,0.09471031455131759,277.0,0.11204194219053427,1.0,-1.2253823773203039,8.248831088006456,0.294230231842446,-0.6057681243815065,15538132.0,15538200.0,68.0,422.44915718798006,9.516864915915571,9.938064197593516,0.09471031455131759,0.11204194219053427,10.15816335172065,-0.1840567319166419,0.4375
77,17963.88082,3.5078688,1,78,2,2,2,1,2,2,-40.67307692,n/a,n/a,15540261.0,15543770.0,0.0,0.0,0.0,15541721.0,15540777.0,15542770.0,15540777.0,15541371.0,15542777.0,15543770.0,3509.0,516.0,594.0,993.0,1993.0,-15542777.0,0.0,0.0,0.0,1.0,0.0,0.0,0.0,-0.7753831992083275,7.643062963624949,0.1349997534335921,-0.5988450601028592,15541704.0,15541742.0,38.0,385.3169723792354,8.4503706431657,8.413657439256639,0.08695125563515209,333.0,0.08898372383585759,1.0,7.158448464119744,-0.6126911886601539,-0.4396145816940092,0.8653830348307235,15542306.0,15542488.0,182.0,1654.5645868087886,7.879951159883118,19.53262563870591,-2.9752162740404873,-1.1310857970259887,10.092716447560381,-0.10789532560630583,0.4625
78,17967.39713,3.5077444,1,79,2,2,1,1,4,1,-40.67307692,n/a,n/a,15543777.0,15547286.0,0.0,0.0,0.0,15545520.0,15544294.0,15546287.0,15544294.0,15545287.0,15546293.0,15547286.0,3509.0,517.0,993.0,993.0,1993.0,-15546293.0,0.0,0.0,0.0,1.0,0.0,0.0,0.0,-1.1353825416979078,8.349215520046823,0.4465376459726526,-0.9623059347317631,15545497.0,15545534.0,37.0,421.61988798908783,9.588662087473097,9.596428468124461,0.14746191266511738,210.0,0.15281387424722442,1.0,-0.9449982740351486,-1.4226897092617103,0.2769225711458316,0.29076869970312236,15547159.0,15547179.0,20.0,57.59115247186412,0.4778920616256745,0.5434715697495919,-3.1126152597382335,2.981679530431574,10.267241525321102,-0.3109924091005327,0.6
79,17970.91318,3.7078714,1,80,2,1,2,2,1,1,-40.67307692,n/a,n/a,15547293.0,15551002.0,0.0,0.0,0.0,15548726.0,15548010.0,15550003.0,15548010.0,15548403.0,15550009.0,15551002.0,3709.0,717.0,393.0,993.0,1993.0,-15550009.0,0.0,0.0,0.0,1.0,0.0,0.0,0.0,-1.1734593952304604,-10.55074996065618,0.1384612855729158,0.4292299852760381,15548710.0,15548790.0,80.0,336.41035043311894,9.381797524203412,9.766852023217846,-3.110594833707559,307.0,-3.0848556006346834,0.0,0.0,0.0,0.0,0.0,0.0,0.0,0.0,0.0,0.0,0.0,0.0,0.0,-9.612772483718404,-0.45062165400281223,0.35
80,17974.62935,3.4995097,1,81,2,2,2,1,2,1,-40.67307692,n/a,n/a,15551009.0,15554511.0,0.0,0.0,0.0,15552453.0,15551519.0,15553510.0,15551519.0,15552109.0,15553517.0,15554511.0,3502.0,510.0,590.0,994.0,1991.0,-15553517.0,0.0,0.0,0.0,1.0,0.0,0.0,0.0,-1.246151570156242,8.594984301938744,0.26307644258854074,-0.5503836101523394,15552425.0,15552486.0,61.0,391.14334607053917,9.874698603524058,10.26774049744492,0.0824716736059176,316.0,0.0870888008336263,0.0,0.0,0.0,0.0,0.0,0.0,0.0,0.0,0.0,0.0,0.0,0.0,0.0,10.114532082280471,-0.1332824610430832,0.45416666666666666
81,17978.1372,3.9161222,1,82,2,1,2,2,5,2,-40.67307692,n/a,n/a,15554517.0,15558435.0,0.0,0.0,0.0,15556860.0,15555443.0,15557435.0,15555443.0,15556633.0,15557442.0,15558435.0,3918.0,926.0,1190.0,993.0,1992.0,-15557442.0,0.0,0.0,0.0,1.0,0.0,0.0,0.0,-0.6992294921432263,-10.028058607618426,0.5676912708489539,2.12884226568358,15556843.0,15556893.0,50.0,351.04650330068836,9.458554069962858,9.72149716584466,-2.9757821629031604,210.0,-2.9738097845275946,1.0,-0.6992294921432263,-10.028058607618426,0.5676912708489539,2.12884226568358,15556843.0,15556893.0,50.0,351.04650330068836,9.458554069962858,9.72149716584466,-2.9757821629031604,-2.9738097845275946,-10.529029141962175,0.6156380343418691,0.7
82,17982.06181,3.5076789,1,83,2,2,2,2,5,2,-40.67307692,n/a,n/a,15558442.0,15561951.0,0.0,0.0,0.0,15560358.0,15558958.0,15560951.0,15558958.0,15560151.0,15560958.0,15561951.0,3509.0,516.0,1193.0,993.0,1993.0,-15560958.0,0.0,0.0,0.0,1.0,0.0,0.0,0.0,-0.9138444847812434,7.978831581139271,0.4465376459726526,0.07269217492578157,15560340.0,15560382.0,42.0,390.2658949898785,8.900530773477378,8.885083459195485,0.042014964289587176,189.0,0.04676774507059641,1.0,-0.7199986849791604,-1.2149977809023367,0.758075538511713,0.8307677134374947,15560817.0,15560837.0,20.0,117.80657304879266,0.5003081622962015,0.6899919864708205,-2.995781724645678,-3.025949324152155,9.492786492757912,0.5902508989050917,0.6916666666666667
83,17985.57778,3.5078806,1,84,2,2,2,2,2,1,-40.67307692,n/a,n/a,15561958.0,15565467.0,0.0,0.0,0.0,15563400.0,15562474.0,15564467.0,15562474.0,15563067.0,15564474.0,15565467.0,3509.0,516.0,593.0,993.0,1993.0,-15564474.0,0.0,0.0,0.0,1.0,0.0,0.0,0.0,-0.8238446491588473,9.072675737165303,0.3807685353255184,-0.15576894626953025,15563386.0,15563445.0,59.0,416.657942086832,9.911053840338367,10.231353316882416,0.05416173714799384,319.0,0.07687568492761293,0.0,0.0,0.0,0.0,0.0,0.0,0.0,0.0,0.0,0.0,0.0,0.0,0.0,10.114532082280471,-0.1332824610430832,0.45416666666666666
84,17989.09399,3.5078257,1,85,2,1,1,1,5,2,-40.67307692,n/a,n/a,15565474.0,15568984.0,0.0,0.0,0.0,15567600.0,15565990.0,15567983.0,15565990.0,15567183.0,15567990.0,15568984.0,3510.0,516.0,1193.0,994.0,1993.0,-15567990.0,0.0,0.0,0.0,1.0,0.0,0.0,0.0,-1.1803824595091077,-10.294596582346287,0.498460628062496,0.6023065922421829,15567580.0,15567642.0,62.0,334.7420699767278,9.11480570616846,9.546011975915366,-3.130199299277776,397.0,-3.1060488485477675,1.0,-1.1803824595091077,-10.294596582346287,0.498460628062496,0.6023065922421829,15567580.0,15567642.0,62.0,334.7420699767278,9.11480570616846,9.546011975915366,-3.130199299277776,-3.1060488485477675,-9.22009105875679,-0.9075900918648169,0.7958333333333333
85,17992.61034,3.7576328,1,86,2,2,2,2,3,1,-40.67307692,n/a,n/a,15568990.0,15572749.0,0.0,0.0,0.0,15570833.0,15569756.0,15571749.0,15569757.0,15570550.0,15571756.0,15572749.0,3759.0,767.0,793.0,993.0,1993.0,-15571756.0,0.0,0.0,0.0,1.0,0.0,0.0,0.0,-1.0661518989114498,8.335369391489529,0.44999917811197626,0.38423006746484206,15570805.0,15570864.0,59.0,335.15594626486245,9.401751334181212,9.652659728171175,0.006995467624225279,255.0,0.03335683688751491,1.0,-1.246151570156242,-33.26532385889301,0.5711528029882775,18.726888873736858,15571778.0,15571801.0,23.0,16313.248140067524,36.80839776907561,49.600813046124124,-2.625770917625174,-2.335170934635266,9.929099187159705,0.08250819016952844,0.525
86,17996.37643,3.5077065,1,87,2,2,2,1,2,2,-40.67307692,n/a,n/a,15572756.0,15576265.0,0.0,0.0,0.0,15574182.0,15573273.0,15575266.0,15573273.0,15573866.0,15575272.0,15576265.0,3509.0,517.0,593.0,993.0,1993.0,-15575272.0,0.0,0.0,0.0,1.0,0.0,0.0,0.0,-0.882690695527338,9.214598554877547,0.5053836923411433,-0.28730716756379865,15574159.0,15574226.0,67.0,430.3026194992267,10.128356678440925,10.650960583441057,0.07834462916047001,293.0,0.09177799419081754,1.0,-0.882690695527338,9.214598554877547,0.5053836923411433,-0.28730716756379865,15574159.0,15574226.0,67.0,430.3026194992267,10.128356678440925,10.650960583441057,0.07834462916047001,0.09177799419081754,10.147255534360607,-0.1713631641982532,0.44166666666666665
87,18010.75781,3.5077911,1,88,2,2,2,1,4,1,-40.67307692,n/a,n/a,15587138.0,15590647.0,0.0,0.0,0.0,15588980.0,15587654.0,15589647.0,15587654.0,15588647.0,15589654.0,15590647.0,3509.0,516.0,993.0,993.0,1993.0,-15589654.0,0.0,0.0,0.0,1.0,0.0,0.0,0.0,-0.048461449950519736,8.162292784523384,0.11769209273697762,0.031153789253905263,15588964.0,15589027.0,63.0,367.1223700577183,8.211210262616643,8.464128449247264,0.010539238770459572,317.0,0.05114291472273275,0.0,0.0,0.0,0.0,0.0,0.0,0.0,0.0,0.0,0.0,0.0,0.0,0.0,9.590956848998317,0.47600878943958963,0.6541666666666667
88,18014.27394,3.50771,1,89,2,1,2,1,3,1,-40.67307692,n/a,n/a,15590654.0,15594162.0,0.0,0.0,0.0,15591387.0,15591170.0,15593163.0,15591170.0,15591963.0,15593170.0,15594163.0,3508.0,516.0,793.0,993.0,1993.0,-15593170.0,0.0,1.0,0.0,0.0,0.0,0.0,0.0,0.0,0.0,0.0,0.0,0.0,0.0,0.0,0.0,0.0,0.0,0.0,0.0,0.0,0.0,0.0,0.0,0.0,0.0,0.0,0.0,0.0,0.0,0.0,0.0,0.0,0.0,0.0,0.0,0.0
89,18017.79002,3.5078319,1,90,2,1,2,2,4,2,-40.67307692,n/a,n/a,15594170.0,15597679.0,0.0,0.0,0.0,15595963.0,15594686.0,15596679.0,15594686.0,15595680.0,15596686.0,15597679.0,3509.0,516.0,994.0,993.0,1993.0,-15596686.0,0.0,0.0,0.0,1.0,0.0,0.0,0.0,0.0034615321393236813,-10.813826403244722,0.48115296736588153,1.709996876825509,15595940.0,15596007.0,67.0,374.1787442505179,10.886862524658847,11.414412070766696,-3.0284775721967443,260.0,-3.0123477224684887,1.0,0.0034615321393236813,-10.813826403244722,0.48115296736588153,1.709996876825509,15595940.0,15596007.0,67.0,374.1787442505179,10.886862524658847,11.414412070766696,-3.0284775721967443,-3.0123477224684887,-10.332688429481369,0.38715381541086485,0.625
90,18021.30618,3.508060102,1,91,2,2,2,2,5,2,-40.67307692,n/a,n/a,15597686.0,15601196.0,0.0,0.0,0.0,15599662.0,15598202.0,15600195.0,15598202.0,15599396.0,15600202.0,15601196.0,3510.0,516.0,1194.0,994.0,1993.0,-15600202.0,0.0,0.0,0.0,1.0,0.0,0.0,0.0,-0.5330759494557249,7.67075522073953,0.39807619602213284,0.46384530666926704,15599631.0,15599679.0,48.0,360.8138780947274,8.204094797415653,8.25481941312181,-0.008016705894637545,235.0,-0.024743271390706686,0.0,0.0,0.0,0.0,0.0,0.0,0.0,0.0,0.0,0.0,0.0,0.0,0.0,9.438247405957688,0.6537187374970352,0.7125
91,18024.82241,3.5077801,1,92,2,2,2,1,2,2,-40.67307692,n/a,n/a,15601202.0,15604711.0,0.0,0.0,0.0,15602678.0,15601718.0,15603712.0,15601718.0,15602311.0,15603718.0,15604711.0,3509.0,516.0,593.0,993.0,1994.0,-15603718.0,0.0,0.0,0.0,1.0,0.0,0.0,0.0,-0.5226913530377578,7.926908599049428,0.1107690284583342,0.19730733194140657,15602662.0,15602713.0,51.0,375.2819004118813,8.45004309032099,8.760389022089102,-0.01024134614944574,351.0,0.03754660095208034,1.0,-0.5226913530377578,7.926908599049428,0.1107690284583342,0.19730733194140657,15602662.0,15602713.0,51.0,375.2819004118813,8.45004309032099,8.760389022089102,-0.01024134614944574,0.03754660095208034,10.070900812840291,-0.08250819016952844,0.4708333333333333
92,18028.33848,3.5078846,1,93,2,1,2,2,2,1,-40.67307692,n/a,n/a,15604718.0,15608228.0,0.0,0.0,0.0,15606161.0,15605235.0,15607228.0,15605235.0,15605828.0,15607235.0,15608228.0,3510.0,517.0,593.0,993.0,1993.0,-15607235.0,0.0,0.0,0.0,1.0,0.0,0.0,0.0,-0.6611526386106736,-10.183827553887957,0.7546140063723894,1.5542279305559787,15606147.0,15606204.0,57.0,348.94245200643223,9.556187522741455,9.933177548407324,-3.0578197098460267,319.0,-3.0407103673798446,1.0,-1.1353825416979078,-1.142305605976555,0.1349997534335921,0.11423056059765394,15607888.0,15607919.0,31.0,29.42302318424485,0.02189265150827254,0.14980877644411258,1.8925468811915958,-0.8671825440154625,-9.885467917719525,-0.1332824610430832,0.45416666666666666
93,18031.85469,3.508065478,1,94,2,1,2,2,1,2,-40.67307692,n/a,n/a,15608234.0,15611744.0,0.0,0.0,0.0,15609167.0,15608751.0,15610743.0,15608751.0,15609144.0,15610750.0,15611744.0,3510.0,517.0,393.0,994.0,1992.0,-15610750.0,0.0,0.0,0.0,0.0,1.0,0.0,0.0,0.0,0.0,0.0,0.0,0.0,0.0,0.0,0.0,0.0,0.0,0.0,0.0,0.0,0.0,0.0,0.0,0.0,0.0,0.0,0.0,0.0,0.0,0.0,0.0,0.0,0.0,0.0,0.0,0.0
94,18035.37088,3.5078313,1,95,2,2,1,2,5,2,-40.67307692,n/a,n/a,15611750.0,15615260.0,0.0,0.0,0.0,15613900.0,15612267.0,15614260.0,15612267.0,15613460.0,15614267.0,15615260.0,3510.0,517.0,1193.0,993.0,1993.0,-15614267.0,0.0,0.0,0.0,1.0,0.0,0.0,0.0,-0.7373063456757749,9.07959880144395,0.4465376459726526,-0.8307677134374947,15613881.0,15613947.0,66.0,401.78673869182086,9.899653309521684,10.266193554481331,0.12938596220605963,421.0,0.12406224226538344,1.0,-0.7373063456757749,9.07959880144395,0.4465376459726526,-0.8307677134374947,15613881.0,15613947.0,66.0,401.78673869182086,9.899653309521684,10.266193554481331,0.12938596220605963,0.12406224226538344,10.812632393323346,-0.9456707950199869,0.8083333333333333
95,18038.88704,3.5080173,1,96,2,1,2,2,1,1,-40.67307692,n/a,n/a,15615266.0,15618776.0,0.0,0.0,0.0,15616560.0,15615783.0,15617776.0,15615783.0,15616177.0,15617783.0,15618777.0,3510.0,517.0,394.0,994.0,1993.0,-15617783.0,0.0,0.0,0.0,1.0,0.0,0.0,0.0,-0.7303832813971315,-10.097289250404884,0.5123067566197868,1.3153822129427,15616543.0,15616605.0,62.0,366.9101605775233,9.401268936733025,9.877610393878038,-3.056066396869435,366.0,-3.055628461300545,1.0,-0.7303832813971315,-10.097289250404884,0.5123067566197868,1.3153822129427,15616543.0,15616605.0,62.0,366.9101605775233,9.401268936733025,9.877610393878038,-3.056066396869435,-3.055628461300545,-9.68912720523872,-0.36176667997408746,0.37916666666666665
96,18042.40325,3.5078103,1,97,2,1,1,2,4,1,-40.67307692,n/a,n/a,15618783.0,15622292.0,0.0,0.0,0.0,15620949.0,15619299.0,15621292.0,15619299.0,15620293.0,15621299.0,15622292.0,3509.0,516.0,994.0,993.0,1993.0,-15621299.0,0.0,0.0,0.0,1.0,0.0,0.0,0.0,-0.872306099109371,-8.858060744527286,0.044999917811196055,0.6507680421927026,15620938.0,15620986.0,48.0,349.82460273531973,8.008697289655197,8.428961543023803,-3.065881558845803,645.0,-3.0655451944588705,0.0,0.0,0.0,0.0,0.0,0.0,0.0,0.0,0.0,0.0,0.0,0.0,0.0,-9.15464415459652,-0.983751498175153,0.8208333333333333
97,18045.9194,3.5078271,1,98,2,1,1,2,2,2,-40.67307692,n/a,n/a,15622299.0,15625808.0,0.0,0.0,0.0,15623842.0,15622815.0,15624808.0,15622815.0,15623408.0,15624815.0,15625808.0,3509.0,516.0,593.0,993.0,1993.0,-15624815.0,0.0,0.0,0.0,1.0,0.0,0.0,0.0,-0.7407678778150986,-10.232289003838476,0.10384596417968683,0.7199986849791604,15623818.0,15623884.0,66.0,348.3467406395621,9.511499222577726,9.935393842754564,-3.076767491825363,410.0,3.0613736979728827,1.0,-0.7407678778150986,-10.232289003838476,0.10384596417968683,0.7199986849791604,15623818.0,15623884.0,66.0,348.3467406395621,9.511499222577726,9.935393842754564,-3.076767491825363,3.0613736979728827,-9.994546091319975,-0.006346783859196312,0.5
98,18049.43556,3.5078713,1,99,2,2,2,1,4,1,-40.67307692,n/a,n/a,15625815.0,15629324.0,0.0,0.0,0.0,15627648.0,15626332.0,15628325.0,15626332.0,15627324.0,15628332.0,15629324.0,3509.0,517.0,992.0,992.0,1993.0,-15628332.0,0.0,0.0,0.0,1.0,0.0,0.0,0.0,-0.758075538511713,7.930370131188748,0.14192281771223947,0.12807668915494866,15627632.0,15627684.0,52.0,362.54993621779306,8.688456702465215,9.068898433810679,0.0015936241489303972,308.0,0.026339840456816963,0.0,0.0,0.0,0.0,0.0,0.0,0.0,0.0,0.0,0.0,0.0,0.0,0.0,9.601864666358363,0.46331522172120093,0.65
99,18052.95177,3.5078289,1,100,2,2,1,2,3,2,-40.67307692,n/a,n/a,15629331.0,15632841.0,0.0,0.0,0.0,15631531.0,15629848.0,15631840.0,15629848.0,15630641.0,15631848.0,15632841.0,3510.0,517.0,793.0,993.0,1992.0,-15631848.0,0.0,0.0,0.0,0.0,0.0,0.0,1.0,-0.7269217492578078,8.228061895170521,0.1107690284583342,-1.2980745522460855,15631508.0,15631563.0,55.0,364.09676409579356,9.065129469945308,9.304908738466182,0.15604603473966097,867.0,0.1663106853314721,0.0,0.0,0.0,0.0,0.0,0.0,0.0,0.0,0.0,0.0,0.0,0.0,0.0,0.0,0.0,0.0
100,18424.74113,3.5328533,2,1,2,1,2,1,3,2,-40.67307692,n/a,n/a,16001119.0,16004653.0,0.0,0.0,0.0,16002744.0,16001651.0,16003652.0,16001651.0,16002451.0,16003659.0,16004654.0,3534.0,532.0,800.0,995.0,2001.0,-16003659.0,0.0,0.0,0.0,1.0,0.0,0.0,0.0,-0.294230231842446,-11.55459428105982,-0.2769225711458316,0.543460545873696,16002725.0,16002776.0,51.0,368.0857454903963,11.29020934170832,11.316938700347544,-3.0688653247550546,274.0,3.065970267995238,0.0,0.0,0.0,0.0,0.0,0.0,0.0,0.0,0.0,0.0,0.0,0.0,0.0,-10.103624264920427,0.12058889332469451,0.5375
101,18428.29063,3.7411733,2,2,2,1,1,1,3,1,-40.67307692,n/a,n/a,16004668.0,16008410.0,0.0,0.0,0.0,16006535.0,16005419.0,16007410.0,16005419.0,16006208.0,16007417.0,16008410.0,3742.0,751.0,789.0,993.0,1991.0,-16007417.0,0.0,0.0,0.0,1.0,0.0,0.0,0.0,-0.4846144995052052,-10.623442135581962,-0.12807668915494866,0.2007688640807263,16006508.0,16006556.0,48.0,352.6239719790264,10.144159168307478,10.213693304534939,-3.109169741935507,300.0,-3.1083732745479766,0.0,0.0,0.0,0.0,0.0,0.0,0.0,0.0,0.0,0.0,0.0,0.0,0.0,-9.874560100359481,-0.14597602876147583,0.5458333333333333
102,18432.04013,3.5078323,2,3,2,1,2,1,3,1,-40.67307692,n/a,n/a,16008416.0,16011926.0,0.0,0.0,0.0,16009976.0,16008933.0,16010926.0,16008933.0,16009726.0,16010933.0,16011926.0,3510.0,517.0,793.0,993.0,1993.0,-16010933.0,0.0,0.0,0.0,1.0,0.0,0.0,0.0,-0.31846095681770786,-10.073058525429623,0.10038443204036315,0.5573066744309868,16009958.0,16010009.0,51.0,386.5588513843987,9.765293219415419,9.971342738429351,-3.0947851360618652,232.0,-3.0849772821970007,0.0,0.0,0.0,0.0,0.0,0.0,0.0,0.0,0.0,0.0,0.0,0.0,0.0,-10.038177360760157,0.04442748701436238,0.5125
103,18435.55641,3.5077275,2,4,2,1,2,1,3,1,-40.67307692,n/a,n/a,16011933.0,16015442.0,0.0,0.0,0.0,16013509.0,16012449.0,16014443.0,16012449.0,16013242.0,16014449.0,16015443.0,3509.0,516.0,793.0,994.0,1994.0,-16014449.0,0.0,0.0,0.0,1.0,0.0,0.0,0.0,-0.1488458819908829,-9.747674504333272,0.03807685353255263,0.7442294099544223,16013495.0,16013536.0,41.0,343.9200529905076,9.624768171443955,9.608012331239342,-3.0681584047411143,253.0,-3.062610210518627,1.0,-0.1488458819908829,-9.747674504333272,0.03807685353255263,0.7442294099544223,16013495.0,16013536.0,41.0,343.9200529905076,9.624768171443955,9.608012331239342,-3.0681584047411143,-3.062610210518627,-10.070900812840291,0.08250819016952844,0.525
104,18439.08095,3.5160263,2,5,2,1,2,1,5,2,-40.67307692,n/a,n/a,16015460.0,16018975.0,0.0,0.0,0.0,16017509.0,16015982.0,16017975.0,16015983.0,16017175.0,16017982.0,16018976.0,3515.0,523.0,1192.0,994.0,1993.0,-16017982.0,0.0,0.0,0.0,1.0,0.0,0.0,0.0,-0.46384530666926704,-10.713441971204357,-0.26653797472786445,1.2980745522460855,16017489.0,16017541.0,52.0,356.5046684671536,10.368328898391132,10.38626820342408,-2.9901109262579637,314.0,-2.9920600007738876,0.0,0.0,0.0,0.0,0.0,0.0,0.0,0.0,0.0,0.0,0.0,0.0,0.0,-10.67083076764276,0.780654414680926,0.7541666666666667
105,18442.61364,3.507825,2,6,2,2,2,1,1,1,-40.67307692,n/a,n/a,16018991.0,16022500.0,0.0,0.0,0.0,16020325.0,16019508.0,16021499.0,16019508.0,16019898.0,16021507.0,16022501.0,3509.0,517.0,390.0,994.0,1991.0,-16021507.0,0.0,0.0,0.0,1.0,0.0,0.0,0.0,-0.7511524742330696,8.463446080644477,0.14538434985156315,0.12461515701562499,16020291.0,16020341.0,50.0,353.1441448676323,9.21462196115079,9.176351952819822,0.002253940585837887,393.0,0.026786044731758402,0.0,0.0,0.0,0.0,0.0,0.0,0.0,0.0,0.0,0.0,0.0,0.0,0.0,10.27814934268114,-0.3236859768189214,0.39166666666666666
106,18446.12986,3.5077634,2,7,2,1,2,1,3,2,-40.67307692,n/a,n/a,16022506.0,16026015.0,0.0,0.0,0.0,16024122.0,16023023.0,16025015.0,16023023.0,16023816.0,16025023.0,16026015.0,3509.0,517.0,793.0,992.0,1992.0,-16025023.0,0.0,0.0,0.0,1.0,0.0,0.0,0.0,-0.5226913530377578,-10.145750700355403,0.16961507482682103,0.8203831170195276,16024105.0,16024152.0,47.0,346.2647342258478,9.64503863376072,9.73770028709851,-3.0740695626787153,289.0,-3.0704371490910445,0.0,0.0,0.0,0.0,0.0,0.0,0.0,0.0,0.0,0.0,0.0,0.0,0.0,-10.114532082280471,0.13328246104308714,0.5416666666666666
107,18449.64598,3.5078041,2,8,2,2,1,2,1,2,-40.67307692,n/a,n/a,16026022.0,16029531.0,0.0,0.0,0.0,16027322.0,16026539.0,16028532.0,16026539.0,16026932.0,16028538.0,16029532.0,3509.0,517.0,393.0,994.0,1993.0,-16028538.0,0.0,0.0,0.0,1.0,0.0,0.0,0.0,-0.5123067566197868,8.16921584880203,0.05884604636849078,0.2007688640807263,16027299.0,16027350.0,51.0,335.0923826678594,8.682682582856373,8.729520812670536,-0.016346231344284843,367.0,0.038473069927300596,0.0,0.0,0.0,0.0,0.0,0.0,0.0,0.0,0.0,0.0,0.0,0.0,0.0,9.689127205238723,0.36176667997408746,0.37916666666666665
108,18453.16222,3.7994894,2,9,2,1,2,1,5,2,-40.67307692,n/a,n/a,16029539.0,16033339.0,0.0,0.0,0.0,16031814.0,16030348.0,16032339.0,16030348.0,16031538.0,16032346.0,16033340.0,3800.0,809.0,1190.0,994.0,1991.0,-16032346.0,0.0,1.0,0.0,0.0,0.0,0.0,0.0,0.0,0.0,0.0,0.0,0.0,0.0,0.0,0.0,0.0,0.0,0.0,0.0,0.0,0.0,0.0,0.0,0.0,0.0,0.0,0.0,0.0,0.0,0.0,0.0,0.0,0.0,0.0,0.0,0.0
109,18456.96992,3.7661572,2,10,2,1,1,2,1,2,-40.67307692,n/a,n/a,16033346.0,16037114.0,0.0,0.0,0.0,16035179.0,16034122.0,16036114.0,16034122.0,16034513.0,16036121.0,16037114.0,3768.0,776.0,391.0,993.0,1992.0,-16036121.0,0.0,1.0,0.0,0.0,0.0,0.0,0.0,0.0,0.0,0.0,0.0,0.0,0.0,0.0,0.0,0.0,0.0,0.0,0.0,0.0,0.0,0.0,0.0,0.0,0.0,0.0,0.0,0.0,0.0,0.0,0.0,0.0,0.0,0.0,0.0,0.0
110,18460.74441,3.5078306,2,11,2,2,2,1,4,1,-40.67307692,n/a,n/a,16037120.0,16040630.0,0.0,0.0,0.0,16039014.0,16037637.0,16039630.0,16037637.0,16038630.0,16039637.0,16040630.0,3510.0,517.0,993.0,993.0,1993.0,-16039637.0,0.0,0.0,0.0,1.0,0.0,0.0,0.0,-1.1284594774192644,7.79883190989448,0.5676912708489539,0.7857677956262986,16038994.0,16039042.0,48.0,351.5164630402833,8.929954584692192,8.929692930040318,-0.024423215641387584,364.0,-0.05352026845931538,0.0,0.0,0.0,0.0,0.0,0.0,0.0,0.0,0.0,0.0,0.0,0.0,0.0,9.525509944838047,0.5521701957499257,0.6791666666666667
111,18464.26057,3.6661886,2,12,2,2,1,2,2,1,-40.67307692,n/a,n/a,16040637.0,16044304.0,0.0,0.0,0.0,16042279.0,16041314.0,16043305.0,16041314.0,16041903.0,16043311.0,16044305.0,3667.0,677.0,589.0,994.0,1991.0,-16043311.0,0.0,0.0,0.0,1.0,0.0,0.0,0.0,-0.7753831992083275,8.525753659152286,0.30461482826041314,0.3253840210963513,16042246.0,16042307.0,61.0,336.3336644320622,9.301160046861112,9.414848811165712,-0.002232969865161175,343.0,0.025003982430622608,0.0,0.0,0.0,0.0,0.0,0.0,0.0,0.0,0.0,0.0,0.0,0.0,0.0,9.918191369799661,0.09520175788791714,0.4666666666666667
112,18467.93513,3.5744222,2,13,2,2,1,1,5,1,-40.67307692,n/a,n/a,16044311.0,16047887.0,0.0,0.0,0.0,16046337.0,16044894.0,16046888.0,16044894.0,16046087.0,16046894.0,16047888.0,3576.0,583.0,1193.0,994.0,1994.0,-16046894.0,0.0,0.0,0.0,1.0,0.0,0.0,0.0,-1.0246135132395775,9.591905558063738,0.0034615321393236813,-0.14538434985156315,16046294.0,16046362.0,68.0,379.4309611578403,10.617562445680866,10.65810467491212,0.0140192966677607,207.0,0.025660383338731683,1.0,-1.0246135132395775,9.591905558063738,0.0034615321393236813,-0.14538434985156315,16046294.0,16046362.0,68.0,379.4309611578403,10.617562445680866,10.65810467491212,0.0140192966677607,0.025660383338731683,10.529029141962175,-0.6156380343418691,0.7
113,18471.51789,3.7244827,2,14,2,2,2,2,1,1,-40.67307692,n/a,n/a,16047894.0,16051620.0,0.0,0.0,0.0,16049404.0,16048627.0,16050620.0,16048627.0,16049020.0,16050627.0,16051620.0,3726.0,733.0,393.0,993.0,1993.0,-16050627.0,0.0,0.0,0.0,1.0,0.0,0.0,0.0,-1.176920927369784,9.148829444230408,0.2319226533346355,0.2561533783098934,16049375.0,16049431.0,56.0,360.2230151989659,10.325778801845136,10.321058889154243,-0.0023466266011162107,355.0,0.02079539163944448,0.0,0.0,0.0,0.0,0.0,0.0,0.0,0.0,0.0,0.0,0.0,0.0,0.0,10.32178061212132,-0.37446024769247616,0.375
114,18475.25069,3.5078574,2,15,2,1,2,1,4,1,-40.67307692,n/a,n/a,16051627.0,16055136.0,0.0,0.0,0.0,16053526.0,16052143.0,16054136.0,16052143.0,16053136.0,16054143.0,16055136.0,3509.0,516.0,993.0,993.0,1993.0,-16054143.0,0.0,0.0,0.0,1.0,0.0,0.0,0.0,-0.7788447313476512,-11.976901202057215,-0.0,1.246151570156242,16053511.0,16053575.0,64.0,378.3170291279763,11.267180767920747,11.517326858656604,-3.0307657971333857,375.0,-3.018356018315827,1.0,-1.1873055237877512,-1.1630747988124932,0.3530762782109368,0.3634608746289039,16054980.0,16055003.0,23.0,27.650157882986527,0.02636224337173607,0.10995473884434956,-0.40489178628506384,-1.0789871508061912,-10.485397872521995,0.5648637634683144,0.6833333333333333
115,18478.76698,3.5077269,2,16,2,2,1,1,2,2,-40.67307692,n/a,n/a,16055143.0,16058652.0,0.0,0.0,0.0,16056736.0,16055660.0,16057653.0,16055660.0,16056252.0,16057659.0,16058653.0,3509.0,517.0,592.0,994.0,1993.0,-16057659.0,0.0,0.0,0.0,1.0,0.0,0.0,0.0,-0.9034598883632762,8.432292291390567,0.2284611211953118,-0.498460628062496,16056711.0,16056764.0,53.0,321.39735109378046,9.364010037976394,9.350475504758002,0.07770750382317661,459.0,0.07819153824337369,1.0,-0.9034598883632762,8.432292291390567,0.2284611211953118,-0.498460628062496,16056711.0,16056764.0,53.0,321.39735109378046,9.364010037976394,9.350475504758002,0.07770750382317661,0.07819153824337369,10.070900812840291,-0.08250819016952844,0.525
116,18482.28317,3.5077219,2,17,2,2,2,1,2,1,-40.67307692,n/a,n/a,16058659.0,16062169.0,0.0,0.0,0.0,16060075.0,16059176.0,16061168.0,16059176.0,16059769.0,16061175.0,16062169.0,3510.0,517.0,593.0,994.0,1992.0,-16061175.0,0.0,0.0,0.0,1.0,0.0,0.0,0.0,-0.5538451422916632,8.065369884622344,0.5365374815950487,0.8688445669700473,16060047.0,16060116.0,69.0,323.42435920177905,8.625618567915616,8.879224664710154,-0.03853513120174937,278.0,-0.06905765606558119,0.0,0.0,0.0,0.0,0.0,0.0,0.0,0.0,0.0,0.0,0.0,0.0,0.0,10.15816335172065,-0.1840567319166419,0.4375
117,18485.79921,3.5078531,2,18,2,2,2,2,2,2,-40.67307692,n/a,n/a,16062175.0,16065685.0,0.0,0.0,0.0,16063568.0,16062692.0,16064684.0,16062692.0,16063285.0,16064692.0,16065685.0,3510.0,517.0,593.0,993.0,1992.0,-16064692.0,0.0,0.0,0.0,1.0,0.0,0.0,0.0,-0.882690695527338,9.415367418958272,0.07269217492578157,0.2976917639817697,16063540.0,16063594.0,54.0,330.36682922590364,10.300515799919841,10.283233832298762,-0.021845263865785555,255.0,0.034005074676115805,0.0,0.0,0.0,0.0,0.0,0.0,0.0,0.0,0.0,0.0,0.0,0.0,0.0,10.190886803800787,-0.22213743507180797,0.425
118,18489.31539,3.5078279,2,19,2,2,1,2,1,2,-40.67307692,n/a,n/a,16065691.0,16069201.0,0.0,0.0,0.0,16066934.0,16066208.0,16068201.0,16066208.0,16066601.0,16068208.0,16069201.0,3510.0,517.0,393.0,993.0,1993.0,-16068208.0,0.0,0.0,0.0,1.0,0.0,0.0,0.0,-0.7961523920442657,7.67075522073953,-0.05192298208984342,0.31499942467838415,16066908.0,16066955.0,47.0,316.02059093060853,8.474854369014537,8.497274589672875,-0.04330896082431999,307.0,0.06236798794939757,1.0,-0.8446138419947854,-1.4815357556301971,0.16961507482682103,0.1869227355234355,16068072.0,16068091.0,19.0,67.74597596071993,0.6371570286732966,0.6775589958457303,-3.1144254261854702,3.0546330270218656,9.612772483718407,0.45062165400281223,0.35
119,18492.83155,3.9994082,2,20,2,1,2,1,4,1,-40.67307692,n/a,n/a,16069207.0,16073208.0,0.0,0.0,0.0,16071517.0,16070218.0,16072209.0,16070218.0,16071207.0,16072215.0,16073209.0,4001.0,1011.0,989.0,994.0,1991.0,-16072215.0,0.0,1.0,0.0,0.0,0.0,0.0,0.0,0.0,0.0,0.0,0.0,0.0,0.0,0.0,0.0,0.0,0.0,0.0,0.0,0.0,0.0,0.0,0.0,0.0,0.0,0.0,0.0,0.0,0.0,0.0,0.0,0.0,0.0,0.0,0.0,0.0
120,18496.83945,3.5077013,2,21,2,1,2,1,3,2,-40.67307692,n/a,n/a,16073215.0,16076724.0,0.0,0.0,0.0,16074798.0,16073732.0,16075725.0,16073732.0,16074525.0,16075731.0,16076725.0,3509.0,517.0,793.0,994.0,1993.0,-16075731.0,0.0,0.0,0.0,1.0,0.0,0.0,0.0,-1.2392285058775947,-11.679209438075445,0.2596149104492171,1.7861505838906142,16074785.0,16074843.0,58.0,345.9993338562554,10.550995831055184,10.749235040857569,-2.9964014059184896,260.0,-2.9971452811702686,0.0,0.0,0.0,0.0,0.0,0.0,0.0,0.0,0.0,0.0,0.0,0.0,0.0,-10.070900812840291,0.08250819016952844,0.525
121,18500.35561,3.9992991,2,22,2,1,2,2,1,2,-40.67307692,n/a,n/a,16076732.0,16080732.0,0.0,0.0,0.0,16078408.0,16077741.0,16079732.0,16077741.0,16078131.0,16079739.0,16080733.0,4000.0,1009.0,390.0,994.0,1991.0,-16079739.0,0.0,0.0,0.0,1.0,0.0,0.0,0.0,-1.3153822129427,-11.641132584542893,0.4569222423906236,1.1042287524440024,16078399.0,16078458.0,59.0,382.5845684497647,10.346019836369878,10.751078044303911,-3.07898601097578,268.0,-3.070376946655277,1.0,-4.122684777933568,-4.178069292162735,1.2946130201067616,1.2634592308528565,16079716.0,16079738.0,22.0,40.04104848232098,0.06354528307653964,0.28913637362267564,2.6292031932790723,-0.554792227137892,-9.558233396918181,-0.5140894925947557,0.32916666666666666
122,18504.36326,3.6994791,2,23,2,1,2,2,2,2,-40.67307692,n/a,n/a,16080739.0,16084440.0,0.0,0.0,0.0,16081922.0,16081449.0,16083440.0,16081449.0,16082040.0,16083447.0,16084440.0,3701.0,710.0,591.0,993.0,1991.0,-16083447.0,0.0,0.0,0.0,0.0,1.0,0.0,0.0,0.0,0.0,0.0,0.0,0.0,0.0,0.0,0.0,0.0,0.0,0.0,0.0,0.0,0.0,0.0,0.0,0.0,0.0,0.0,0.0,0.0,0.0,0.0,0.0,0.0,0.0,0.0,0.0,0.0
123,18508.07109,3.5078431,2,24,2,2,2,1,4,2,-40.67307692,n/a,n/a,16084447.0,16087956.0,0.0,0.0,0.0,16085606.0,16084963.0,16086956.0,16084963.0,16085956.0,16086963.0,16087956.0,3509.0,516.0,993.0,993.0,1993.0,-16086963.0,0.0,0.0,0.0,0.0,0.0,1.0,0.0,-0.9138444847812434,9.979597157667904,0.33576861751432235,-0.21115346049869735,16085589.0,16085647.0,58.0,412.99921166224584,10.907162535548062,11.154926289621525,0.05016442443626134,-367.0,0.05308866396865468,0.0,0.0,0.0,0.0,0.0,0.0,0.0,0.0,0.0,0.0,0.0,0.0,0.0,0.0,0.0,0.0
124,18511.58722,3.5078698,2,25,2,1,2,2,3,1,-40.67307692,n/a,n/a,16087963.0,16091472.0,0.0,0.0,0.0,16089572.0,16088480.0,16090473.0,16088480.0,16089272.0,16090479.0,16091472.0,3509.0,517.0,792.0,993.0,1993.0,-16090479.0,0.0,0.0,0.0,1.0,0.0,0.0,0.0,-0.9830751275677012,-11.717286291607998,0.5849989315455684,1.6442277661783748,16089556.0,16089603.0,47.0,390.5945310387067,10.786345768531849,10.886071156316607,-3.0432332352464804,284.0,-3.0319888767905923,1.0,-0.9830751275677012,-11.717286291607998,0.5849989315455684,1.6442277661783748,16089556.0,16089603.0,47.0,390.5945310387067,10.786345768531849,10.886071156316607,-3.0432332352464804,-3.0319888767905923,-10.103624264920427,0.12058889332469451,0.5375
125,18515.10342,3.5078468,2,26,2,1,1,1,2,1,-40.67307692,n/a,n/a,16091479.0,16094989.0,0.0,0.0,0.0,16092979.0,16091996.0,16093989.0,16091996.0,16092589.0,16093995.0,16094989.0,3510.0,517.0,593.0,994.0,1993.0,-16093995.0,0.0,0.0,0.0,1.0,0.0,0.0,0.0,-0.5538451422916632,-11.03882599230071,0.2284611211953118,0.65769110647135,16092962.0,16093005.0,43.0,377.1821591889526,10.49376299548053,10.475912834263292,-3.1006778963896053,373.0,3.094323887208753,1.0,-0.5538451422916632,-11.03882599230071,0.2284611211953118,0.65769110647135,16092962.0,16093005.0,43.0,377.1821591889526,10.49376299548053,10.475912834263292,-3.1006778963896053,3.094323887208753,-10.038177360760157,0.04442748701436238,0.48333333333333334
126,18518.61959,3.5079707,2,27,2,2,2,2,4,1,-40.67307692,n/a,n/a,16094995.0,16098505.0,0.0,0.0,0.0,16096878.0,16095512.0,16097505.0,16095512.0,16096505.0,16097512.0,16098505.0,3510.0,517.0,993.0,993.0,1993.0,-16097512.0,0.0,0.0,0.0,1.0,0.0,0.0,0.0,-1.0661518989114498,7.580755385117139,0.543460545873696,0.9103829526419196,16096852.0,16096910.0,58.0,390.43600187685144,8.654688765702396,9.037848293350892,-0.04240850522008412,347.0,-0.0674598605663149,0.0,0.0,0.0,0.0,0.0,0.0,0.0,0.0,0.0,0.0,0.0,0.0,0.0,9.547325579558137,0.5267830603131444,0.6708333333333333
127,18522.13581,3.6495155,2,28,2,1,2,2,3,1,-40.67307692,n/a,n/a,16098511.0,16102162.0,0.0,0.0,0.0,16100311.0,16099172.0,16101163.0,16099172.0,16099961.0,16101169.0,16102162.0,3651.0,661.0,789.0,993.0,1991.0,-16101169.0,0.0,0.0,0.0,1.0,0.0,0.0,0.0,-1.0523057703541592,-12.184593130416589,-0.1488458819908829,0.9311521454778579,16100300.0,16100359.0,59.0,390.28124602266377,11.184552633267998,11.526985183576542,-3.0448803856857563,339.0,-3.037501631076246,1.0,-1.3569205986145763,-1.3223052772213473,-0.1869227355234355,-0.08653830348307236,16101754.0,16101773.0,19.0,37.58415629758397,0.10618500210115749,0.17869688207386533,-1.2387368592520087,1.0204103791181143,-10.169071169080693,0.19675029963503057,0.5625
128,18525.79358,3.5078141,2,29,2,1,1,1,5,1,-40.67307692,n/a,n/a,16102169.0,16105678.0,0.0,0.0,0.0,16104402.0,16102686.0,16104679.0,16102686.0,16103879.0,16104686.0,16105678.0,3509.0,517.0,1193.0,992.0,1993.0,-16104686.0,0.0,0.0,0.0,1.0,0.0,0.0,0.0,-1.394997452147125,-10.540365364238214,0.2561533783098934,-0.19730733194140657,16104390.0,16104433.0,43.0,352.07561618355066,9.1566031290674,9.224735710126104,3.0920495794350296,511.0,3.0807655280321797,1.0,-1.394997452147125,-10.540365364238214,0.2561533783098934,-0.19730733194140657,16104390.0,16104433.0,43.0,352.07561618355066,9.1566031290674,9.224735710126104,3.0920495794350296,3.0807655280321797,-9.078289433076204,-1.0726064722038737,0.85
129,18529.30975,3.6995991,2,30,2,1,2,2,3,2,-40.67307692,n/a,n/a,16105685.0,16109387.0,0.0,0.0,0.0,16107185.0,16106395.0,16108387.0,16106395.0,16107185.0,16108394.0,16109387.0,3702.0,710.0,790.0,993.0,1992.0,-16108394.0,0.0,0.0,0.0,0.0,1.0,0.0,0.0,0.0,0.0,0.0,0.0,0.0,0.0,0.0,0.0,0.0,0.0,0.0,0.0,0.0,0.0,0.0,0.0,0.0,0.0,0.0,0.0,0.0,0.0,0.0,0.0,0.0,0.0,0.0,0.0,0.0
130,18533.01775,3.5076545,2,31,2,2,2,2,4,2,-40.67307692,n/a,n/a,16109393.0,16112903.0,0.0,0.0,0.0,16111636.0,16109910.0,16111902.0,16109910.0,16110903.0,16111909.0,16112903.0,3510.0,517.0,993.0,994.0,1992.0,-16111909.0,0.0,0.0,0.0,1.0,0.0,0.0,0.0,-0.9934597239856723,6.47998816481246,0.08653830348307236,1.131921009558586,16111611.0,16111666.0,55.0,355.6704387303063,7.546207547420295,7.798287233464765,-0.13897782838478648,708.0,-0.14252480091216446,0.0,0.0,0.0,0.0,0.0,0.0,0.0,0.0,0.0,0.0,0.0,0.0,0.0,9.078289433076208,1.0726064722038757,0.85
131,18536.53389,3.9243194,2,32,2,1,2,1,5,2,-40.67307692,n/a,n/a,16112910.0,16116835.0,0.0,0.0,0.0,16115519.0,16113843.0,16115836.0,16113843.0,16115036.0,16115842.0,16116835.0,3925.0,933.0,1193.0,993.0,1993.0,-16115842.0,0.0,0.0,0.0,1.0,0.0,0.0,0.0,-1.1630747988124932,-12.52382328007023,-0.09346136776171972,2.3157650012070157,16115508.0,16115565.0,57.0,365.65070240484255,11.613396477832582,11.796316468618954,-2.93262272462009,472.0,-2.9359099906360235,0.0,0.0,0.0,0.0,0.0,0.0,0.0,0.0,0.0,0.0,0.0,0.0,0.0,-10.878079297483612,1.021832201330319,0.8333333333333334
132,18540.46652,3.9994613,2,33,2,1,1,2,3,2,-40.67307692,n/a,n/a,16116842.0,16120843.0,0.0,0.0,0.0,16119142.0,16117851.0,16119844.0,16117852.0,16118642.0,16119850.0,16120843.0,4001.0,1010.0,790.0,993.0,1993.0,-16119850.0,0.0,1.0,0.0,0.0,0.0,0.0,0.0,0.0,0.0,0.0,0.0,0.0,0.0,0.0,0.0,0.0,0.0,0.0,0.0,0.0,0.0,0.0,0.0,0.0,0.0,0.0,0.0,0.0,0.0,0.0,0.0,0.0,0.0,0.0,0.0,0.0
133,18544.47431,3.5078429,2,34,2,1,1,1,4,1,-40.67307692,n/a,n/a,16120850.0,16124359.0,0.0,0.0,0.0,16122893.0,16121366.0,16123359.0,16121366.0,16122359.0,16123366.0,16124360.0,3509.0,516.0,993.0,994.0,1993.0,-16123366.0,0.0,0.0,0.0,1.0,0.0,0.0,0.0,-0.8653830348307235,-9.789212890005144,0.08307677134374868,0.2561533783098934,16122881.0,16122949.0,68.0,292.620059718724,8.925508097356769,9.075380110078612,-3.1222002051574487,522.0,3.117179343928823,0.0,0.0,0.0,0.0,0.0,0.0,0.0,0.0,0.0,0.0,0.0,0.0,0.0,-9.318261414997192,-0.7933479823993147,0.7583333333333333
134,18547.99047,3.7244585,2,35,2,1,2,2,2,1,-40.67307692,n/a,n/a,16124366.0,16128091.0,0.0,0.0,0.0,16126249.0,16125099.0,16127092.0,16125099.0,16125693.0,16127099.0,16128092.0,3725.0,733.0,594.0,993.0,1993.0,-16127099.0,0.0,0.0,0.0,1.0,0.0,0.0,0.0,-1.1492286702552026,-11.211902599266853,-0.15923047840885393,1.3049976165247308,16126238.0,16126300.0,62.0,351.3663527128523,10.1686464446161,10.497550938959423,-2.99709595146238,545.0,-2.990322185130941,1.0,-1.1492286702552026,-11.211902599266853,-0.15923047840885393,1.3049976165247308,16126238.0,16126300.0,62.0,351.3663527128523,10.1686464446161,10.497550938959423,-2.99709595146238,-2.990322185130941,-10.190886803800783,0.22213743507180797,0.5708333333333333
135,18559.89712,3.5078015,2,36,2,2,1,2,3,2,-40.67307692,n/a,n/a,16136272.0,16139782.0,0.0,0.0,0.0,16137999.0,16136789.0,16138782.0,16136789.0,16137582.0,16138789.0,16139782.0,3510.0,517.0,793.0,993.0,1993.0,-16138789.0,0.0,0.0,0.0,1.0,0.0,0.0,0.0,-0.5988450601028592,8.148446655966097,0.2423072497526026,0.10730749631901051,16137980.0,16138024.0,44.0,354.04873061828295,8.748333401250532,8.752464677044209,0.015432094976899714,398.0,-0.019775902580960982,0.0,0.0,0.0,0.0,0.0,0.0,0.0,0.0,0.0,0.0,0.0,0.0,0.0,10.256333707961057,-0.298298841382144,0.5958333333333333
136,18563.41326,3.4995391,2,37,2,2,1,2,2,2,-40.67307692,n/a,n/a,16139789.0,16143290.0,0.0,0.0,0.0,16141415.0,16140299.0,16142290.0,16140299.0,16140888.0,16142297.0,16143290.0,3501.0,510.0,589.0,993.0,1991.0,-16142297.0,0.0,0.0,0.0,1.0,0.0,0.0,0.0,-0.9623059347317631,8.446138419947863,-0.03807685353255263,-0.2284611211953118,16141396.0,16141451.0,55.0,354.2301222573754,9.41037041483896,9.49272854575742,0.020232705966891605,508.0,0.031365121021585306,0.0,0.0,0.0,0.0,0.0,0.0,0.0,0.0,0.0,0.0,0.0,0.0,0.0,10.136347717000561,-0.1586695964798645,0.55
137,18566.92113,3.5078645,2,38,2,2,2,2,5,2,-40.67307692,n/a,n/a,16143296.0,16146805.0,0.0,0.0,0.0,16145496.0,16143813.0,16145806.0,16143813.0,16145006.0,16145813.0,16146806.0,3509.0,517.0,1193.0,993.0,1993.0,-16145813.0,0.0,0.0,0.0,1.0,0.0,0.0,0.0,-1.2392285058775947,7.345371199643184,0.044999917811196055,0.9276906133385341,16145478.0,16145534.0,56.0,340.98824765091996,8.629860657507628,8.967259187367247,-0.10246249874419647,472.0,-0.1164547519216779,1.0,-1.2392285058775947,7.345371199643184,0.044999917811196055,0.9276906133385341,16145478.0,16145534.0,56.0,340.98824765091996,8.629860657507628,8.967259187367247,-0.10246249874419647,-0.1164547519216779,9.121920702516388,1.021832201330319,0.8333333333333334
138,18579.82766,3.6994938,2,39,2,1,1,2,4,1,-40.67307692,n/a,n/a,16156203.0,16159904.0,0.0,0.0,0.0,16158253.0,16156913.0,16158903.0,16156913.0,16157903.0,16158911.0,16159904.0,3701.0,710.0,990.0,993.0,1990.0,-16158911.0,0.0,0.0,0.0,1.0,0.0,0.0,0.0,-1.0973056881653591,-11.800363062951746,0.22499958905598813,0.6369219136354117,16158238.0,16158294.0,56.0,371.7169081044294,10.710981148776996,10.965563982806271,-3.1031252222425803,335.0,3.0992798509208366,0.0,0.0,0.0,0.0,0.0,0.0,0.0,0.0,0.0,0.0,0.0,0.0,0.0,-9.569141214278227,-0.501395924876367,0.6625
139,18583.53549,3.6744607,2,40,2,1,1,1,2,1,-40.67307692,n/a,n/a,16159911.0,16163586.0,0.0,0.0,0.0,16161577.0,16160594.0,16162587.0,16160594.0,16161187.0,16162594.0,16163586.0,3675.0,683.0,593.0,992.0,1993.0,-16162594.0,0.0,0.0,0.0,1.0,0.0,0.0,0.0,-1.1630747988124932,-12.683053758479085,0.08999983562239604,0.6023065922421829,16161568.0,16161642.0,74.0,369.07366176808034,11.531364769360097,11.874361566408226,-3.0971507816280623,381.0,-3.0855928709370803,1.0,-1.1630747988124932,-12.683053758479085,0.08999983562239604,0.6023065922421829,16161568.0,16161642.0,74.0,369.07366176808034,11.531364769360097,11.874361566408226,-3.0971507816280623,-3.0855928709370803,-10.027269543400111,0.03173391929597369,0.4875
140,18587.21829,3.7328116,2,41,2,1,2,1,4,1,-40.67307692,n/a,n/a,16163593.0,16167328.0,0.0,0.0,0.0,16165110.0,16164337.0,16166328.0,16164337.0,16165328.0,16166335.0,16167328.0,3735.0,744.0,991.0,993.0,1991.0,-16166335.0,0.0,0.0,0.0,0.0,1.0,0.0,0.0,0.0,0.0,0.0,0.0,0.0,0.0,0.0,0.0,0.0,0.0,0.0,0.0,0.0,0.0,0.0,0.0,0.0,0.0,0.0,0.0,0.0,0.0,0.0,0.0,0.0,0.0,0.0,0.0,0.0
141,18590.9595,3.5077715,2,42,2,2,1,2,4,1,-40.67307692,n/a,n/a,16167335.0,16170844.0,0.0,0.0,0.0,16169478.0,16167851.0,16169844.0,16167851.0,16168844.0,16169851.0,16170844.0,3509.0,516.0,993.0,993.0,1993.0,-16169851.0,0.0,0.0,0.0,1.0,0.0,0.0,0.0,-0.6507680421927026,9.758059100751243,0.5469220780130157,-0.28730716756379865,16169462.0,16169515.0,53.0,383.22780922943264,10.442203834721015,10.709560325680377,0.07997537873499087,618.0,0.09127440735866359,1.0,-0.6507680421927026,9.758059100751243,0.5469220780130157,-0.28730716756379865,16169462.0,16169515.0,53.0,383.22780922943264,10.442203834721015,10.709560325680377,0.07997537873499087,0.09127440735866359,10.801724575963302,-0.9329772273015943,0.8041666666666667
142,18594.4756,3.5078444,2,43,2,2,1,2,3,1,-40.67307692,n/a,n/a,16170851.0,16174360.0,0.0,0.0,0.0,16172710.0,16171367.0,16173361.0,16171367.0,16172160.0,16173367.0,16174360.0,3509.0,516.0,793.0,993.0,1994.0,-16173367.0,0.0,0.0,0.0,1.0,0.0,0.0,0.0,-1.0661518989114498,8.030754563229115,0.29076869970312236,0.07615370706510526,16172684.0,16172747.0,63.0,325.4254463706269,9.099437717573531,9.370630916587785,0.023587709685113256,524.0,0.039166651454084545,1.0,-1.0661518989114498,8.030754563229115,0.29076869970312236,0.07615370706510526,16172684.0,16172747.0,63.0,325.4254463706269,9.099437717573531,9.370630916587785,0.023587709685113256,0.039166651454084545,10.419950968361725,-0.48870235715797833,0.6583333333333333
143,18597.99177,3.5078107,2,44,2,2,1,1,2,2,-40.67307692,n/a,n/a,16174367.0,16177876.0,0.0,0.0,0.0,16175843.0,16174883.0,16176876.0,16174883.0,16175477.0,16176883.0,16177876.0,3509.0,516.0,594.0,993.0,1993.0,-16176883.0,0.0,0.0,0.0,1.0,0.0,0.0,0.0,-0.8653830348307235,8.210754234473907,0.1488458819908829,0.4603837745299434,16175827.0,16175876.0,49.0,364.36314134966653,9.081482455510674,9.240444477096414,-0.034311471744823636,350.0,-0.050968571972163416,0.0,0.0,0.0,0.0,0.0,0.0,0.0,0.0,0.0,0.0,0.0,0.0,0.0,9.929099187159705,0.08250819016952844,0.4708333333333333
144,18601.50792,3.5078516,2,45,2,1,2,2,5,2,-40.67307692,n/a,n/a,16177883.0,16181393.0,0.0,0.0,0.0,16179875.0,16178400.0,16180392.0,16178400.0,16179593.0,16180399.0,16181393.0,3510.0,517.0,1193.0,994.0,1992.0,-16180399.0,0.0,0.0,0.0,1.0,0.0,0.0,0.0,-0.9346136776171815,-11.267287113496021,-0.10038443204036315,1.5784586555312405,16179860.0,16179917.0,57.0,362.4103657308646,10.468173405384684,10.789093705563765,-2.9805211484728664,267.0,-2.979503199713441,0.0,0.0,0.0,0.0,0.0,0.0,0.0,0.0,0.0,0.0,0.0,0.0,0.0,-10.60538386348249,0.7044930083705939,0.7291666666666666
145,18605.02415,3.5078087,2,46,2,1,1,2,3,1,-40.67307692,n/a,n/a,16181399.0,16184909.0,0.0,0.0,0.0,16182592.0,16181916.0,16183908.0,16181916.0,16182709.0,16183915.0,16184909.0,3510.0,517.0,793.0,994.0,1992.0,-16183915.0,0.0,0.0,0.0,0.0,1.0,0.0,0.0,0.0,0.0,0.0,0.0,0.0,0.0,0.0,0.0,0.0,0.0,0.0,0.0,0.0,0.0,0.0,0.0,0.0,0.0,0.0,0.0,0.0,0.0,0.0,0.0,0.0,0.0,0.0,0.0,0.0
146,18608.54027,3.5078556,2,47,2,1,1,1,5,2,-40.67307692,n/a,n/a,16184915.0,16188424.0,0.0,0.0,0.0,16185609.0,16185432.0,16187425.0,16185432.0,16186625.0,16187432.0,16188424.0,3509.0,517.0,1193.0,992.0,1993.0,-16187432.0,0.0,0.0,0.0,1.0,0.0,0.0,0.0,-1.619997041203113,-13.406513975597568,0.4292299852760381,1.9661502551354044,16186566.0,16186612.0,46.0,370.84375329517013,11.886299060711533,11.886299060711533,-3.01192778263598,-59.0,-3.01192778263598,0.0,0.0,0.0,0.0,0.0,0.0,0.0,0.0,0.0,0.0,0.0,0.0,0.0,-9.82002101355926,-0.20944386735341927,0.5666666666666667
147,18619.61377,3.5828347,2,48,2,2,2,1,2,1,-40.67307692,n/a,n/a,16195989.0,16199573.0,0.0,0.0,0.0,16197532.0,16196582.0,16198573.0,16196582.0,16197172.0,16198580.0,16199573.0,3584.0,593.0,590.0,993.0,1991.0,-16198580.0,0.0,1.0,0.0,0.0,0.0,0.0,0.0,0.0,0.0,0.0,0.0,0.0,0.0,0.0,0.0,0.0,0.0,0.0,0.0,0.0,0.0,0.0,0.0,0.0,0.0,0.0,0.0,0.0,0.0,0.0,0.0,0.0,0.0,0.0,0.0,0.0
148,18623.21349,3.990881322,2,49,2,1,1,2,4,1,-40.67307692,n/a,n/a,16199590.0,16203581.0,0.0,0.0,0.0,16200596.0,16200589.0,16202581.0,16200589.0,16201581.0,16202588.0,16203581.0,3991.0,999.0,992.0,993.0,1992.0,-16202588.0,0.0,0.0,0.0,0.0,1.0,0.0,0.0,0.0,0.0,0.0,0.0,0.0,0.0,0.0,0.0,0.0,0.0,0.0,0.0,0.0,0.0,0.0,0.0,0.0,0.0,0.0,0.0,0.0,0.0,0.0,0.0,0.0,0.0,0.0,0.0,0.0
149,18627.2127,3.507825,2,50,2,2,1,2,1,1,-40.67307692,n/a,n/a,16203587.0,16207097.0,0.0,0.0,0.0,16205171.0,16204104.0,16206098.0,16204104.0,16204497.0,16206104.0,16207097.0,3510.0,517.0,393.0,993.0,1994.0,-16206104.0,0.0,0.0,0.0,1.0,0.0,0.0,0.0,-0.8169215848802038,7.9061394062134935,-0.27346103900650787,-0.04153838567187631,16205151.0,16205202.0,51.0,334.71919995325186,8.726143545201989,8.847392422518153,-0.026581039524953765,654.0,0.03874332832467861,1.0,-0.8169215848802038,7.9061394062134935,-0.27346103900650787,-0.04153838567187631,16205151.0,16205202.0,51.0,334.71919995325186,8.726143545201989,8.847392422518153,-0.026581039524953765,0.03874332832467861,10.070900812840291,-0.08250819016952844,0.525
150,18630.72888,3.5078423,2,51,2,2,1,1,2,1,-40.67307692,n/a,n/a,16207104.0,16210613.0,0.0,0.0,0.0,16208763.0,16207620.0,16209614.0,16207620.0,16208214.0,16209620.0,16210614.0,3509.0,516.0,594.0,994.0,1994.0,-16209620.0,0.0,0.0,0.0,1.0,0.0,0.0,0.0,-0.917306016920567,7.2207560426275545,0.2284611211953118,0.33230708537499865,16208739.0,16208779.0,40.0,358.93870283949866,8.138724597216262,8.13042794278424,-0.012759834899387923,525.0,0.06390603469220113,0.0,0.0,0.0,0.0,0.0,0.0,0.0,0.0,0.0,0.0,0.0,0.0,0.0,10.15816335172065,-0.1840567319166419,0.5583333333333333
151,18634.24506,3.5079032,2,52,2,2,2,2,1,1,-40.67307692,n/a,n/a,16210620.0,16214130.0,0.0,0.0,0.0,16212036.0,16211136.0,16213129.0,16211137.0,16211530.0,16213136.0,16214130.0,3510.0,517.0,393.0,994.0,1993.0,-16213136.0,0.0,0.0,0.0,1.0,0.0,0.0,0.0,-1.0938441560260355,8.598445834078072,0.12807668915494866,0.24576878189192627,16212013.0,16212056.0,43.0,411.04226519603606,9.69300452290027,9.767647585933743,-0.01214226037835321,483.0,0.0443129376028003,1.0,8.591522769799425,8.411523098554634,0.24576878189192627,0.38423006746484206,16212058.0,16212083.0,25.0,36.995054451176316,0.22709339323445268,0.32272174345805715,-2.4858970273482615,-2.523836928023571,10.15816335172065,-0.1840567319166419,0.4375
152,18637.76122,3.5078733,2,53,2,2,1,2,5,2,-40.67307692,n/a,n/a,16214136.0,16217645.0,0.0,0.0,0.0,16215713.0,16214653.0,16216645.0,16214653.0,16215846.0,16216652.0,16217645.0,3509.0,517.0,1193.0,993.0,1992.0,-16216652.0,0.0,0.0,0.0,0.0,1.0,0.0,0.0,0.0,0.0,0.0,0.0,0.0,0.0,0.0,0.0,0.0,0.0,0.0,0.0,0.0,0.0,0.0,0.0,0.0,0.0,0.0,0.0,0.0,0.0,0.0,0.0,0.0,0.0,0.0,0.0,0.0
153,18641.27742,3.5078142,2,54,2,2,1,1,4,1,-40.67307692,n/a,n/a,16217652.0,16221161.0,0.0,0.0,0.0,16219695.0,16218169.0,16220162.0,16218169.0,16219162.0,16220168.0,16221162.0,3509.0,517.0,993.0,994.0,1993.0,-16220168.0,0.0,0.0,0.0,1.0,0.0,0.0,0.0,-1.2876899558281183,8.7992146981588,0.3703839389075513,-0.5849989315455684,16219670.0,16219733.0,63.0,380.8908930649116,10.132048259250356,10.285637395248715,0.09443345419468054,508.0,0.09504742760215591,0.0,0.0,0.0,0.0,0.0,0.0,0.0,0.0,0.0,0.0,0.0,0.0,0.0,10.659922950282716,-0.7679608469625373,0.75
154,18644.79374,3.5076864,2,55,2,2,1,1,2,1,-40.67307692,n/a,n/a,16221168.0,16224678.0,0.0,0.0,0.0,16222951.0,16221685.0,16223678.0,16221685.0,16222278.0,16223685.0,16224678.0,3510.0,517.0,593.0,993.0,1993.0,-16223685.0,0.0,0.0,0.0,1.0,0.0,0.0,0.0,-1.0799980274687446,8.892676065920519,0.49153756378385255,0.09692289990103947,16222924.0,16222990.0,66.0,377.9226782895047,9.980478410672943,10.346415335777138,0.039548961203998395,646.0,0.05154558989820169,0.0,0.0,0.0,0.0,0.0,0.0,0.0,0.0,0.0,0.0,0.0,0.0,0.0,10.32178061212132,-0.37446024769247616,0.6208333333333333
155,18648.30976,3.5077975,2,56,2,1,2,2,2,2,-40.67307692,n/a,n/a,16224684.0,16228194.0,0.0,0.0,0.0,16225651.0,16225201.0,16227194.0,16225201.0,16225794.0,16227201.0,16228194.0,3510.0,517.0,593.0,993.0,1993.0,-16227201.0,0.0,0.0,0.0,0.0,1.0,0.0,0.0,0.0,0.0,0.0,0.0,0.0,0.0,0.0,0.0,0.0,0.0,0.0,0.0,0.0,0.0,0.0,0.0,0.0,0.0,0.0,0.0,0.0,0.0,0.0,0.0,0.0,0.0,0.0,0.0,0.0
156,18651.82603,3.5076995,2,57,2,2,2,2,3,1,-40.67307692,n/a,n/a,16228201.0,16231710.0,0.0,0.0,0.0,16229993.0,16228717.0,16230710.0,16228717.0,16229510.0,16230717.0,16231711.0,3509.0,516.0,793.0,994.0,1993.0,-16230717.0,0.0,0.0,0.0,1.0,0.0,0.0,0.0,-1.3223052772213473,7.847293359845003,0.20423039622005,1.2253823773203039,16229975.0,16230026.0,51.0,372.33601622138383,9.226282595574128,9.369484493919147,-0.11090581248465152,465.0,-0.11775624512387527,0.0,0.0,0.0,0.0,0.0,0.0,0.0,0.0,0.0,0.0,0.0,0.0,0.0,9.656403753158587,0.39984738312925355,0.6291666666666667
157,18655.34218,3.5077621,2,58,2,1,2,2,1,1,-40.67307692,n/a,n/a,16231717.0,16235226.0,0.0,0.0,0.0,16233127.0,16232233.0,16234226.0,16232233.0,16232627.0,16234233.0,16235227.0,3509.0,516.0,394.0,994.0,1993.0,-16234233.0,0.0,0.0,0.0,1.0,0.0,0.0,0.0,-1.2634592308528565,-11.696517098772059,0.15923047840885393,1.1042287524440024,16233108.0,16233172.0,64.0,352.00612519522747,10.475768144307136,10.691563327215201,-3.051261841675581,481.0,-3.0345465576251898,1.0,-11.689594034493416,0.0553845142291671,1.1180748810012953,0.15230741413020657,16233616.0,16233673.0,57.0,375.3852105086404,11.78461827595702,11.799272462388076,0.08204353748849001,-0.08282451407025372,-9.84183664827935,-0.1840567319166419,0.4375
158,18658.85827,3.7328445,2,59,2,2,2,1,3,2,-40.67307692,n/a,n/a,16235233.0,16238968.0,0.0,0.0,0.0,16237093.0,16235976.0,16237967.0,16235976.0,16236766.0,16237974.0,16238968.0,3735.0,743.0,790.0,994.0,1991.0,-16237974.0,0.0,0.0,0.0,1.0,0.0,0.0,0.0,-1.2773053594101473,8.584599705520779,0.2284611211953118,1.0384596417968683,16237065.0,16237109.0,44.0,414.5448699367371,9.895113395665911,9.90132891957846,-0.0819501337357802,299.0,-0.08926721860691028,0.0,0.0,0.0,0.0,0.0,0.0,0.0,0.0,0.0,0.0,0.0,0.0,0.0,9.874560100359481,0.14597602876147583,0.5458333333333333
159,18662.59942,3.5078674,2,60,2,2,2,1,2,2,-40.67307692,n/a,n/a,16238974.0,16242483.0,0.0,0.0,0.0,16240534.0,16239491.0,16241483.0,16239491.0,16240084.0,16241490.0,16242483.0,3509.0,517.0,593.0,993.0,1992.0,-16241490.0,0.0,0.0,0.0,1.0,0.0,0.0,0.0,-1.0176904489609302,7.490755549494747,0.22499958905598813,0.4742299030872381,16240511.0,16240562.0,51.0,343.29963015309244,8.512095456353185,8.55418764099399,-0.029283733903011127,427.0,0.05100919758228316,1.0,7.279602088996045,-0.6126911886601539,0.6126911886601539,0.33923014965364207,16240982.0,16241033.0,51.0,286.4555826840964,7.897029449127802,7.915071600012332,3.106957386939765,-0.037181980553642975,9.972730456599885,0.03173391929597369,0.5083333333333333
160,18666.11561,3.7078127,2,61,2,2,2,2,4,1,-40.67307692,n/a,n/a,16242490.0,16246199.0,0.0,0.0,0.0,16244266.0,16243207.0,16245200.0,16243207.0,16244200.0,16245206.0,16246199.0,3709.0,717.0,993.0,993.0,1993.0,-16245206.0,0.0,0.0,0.0,0.0,1.0,0.0,0.0,0.0,0.0,0.0,0.0,0.0,0.0,0.0,0.0,0.0,0.0,0.0,0.0,0.0,0.0,0.0,0.0,0.0,0.0,0.0,0.0,0.0,0.0,0.0,0.0,0.0,0.0,0.0,0.0,0.0
161,18669.83175,3.7328113,2,62,2,1,2,2,5,2,-40.67307692,n/a,n/a,16246206.0,16249940.0,0.0,0.0,0.0,16248539.0,16246950.0,16248941.0,16246950.0,16248139.0,16248948.0,16249941.0,3734.0,744.0,1189.0,993.0,1991.0,-16248948.0,0.0,0.0,0.0,1.0,0.0,0.0,0.0,-1.3638436628932196,-11.675747905936122,0.13153822129426843,2.2015344406093615,16248525.0,16248570.0,45.0,379.7567032689131,10.517616339535541,10.55349339060986,-2.9434870957955734,386.0,-2.9287582793332114,1.0,-1.3638436628932196,-11.675747905936122,0.13153822129426843,2.2015344406093615,16248525.0,16248570.0,45.0,379.7567032689131,10.517616339535541,10.55349339060986,-2.9434870957955734,-2.9287582793332114,-10.758093306523117,0.8822029564280395,0.7875
162,18673.57309,3.9994366,2,63,2,1,2,2,2,2,-40.67307692,n/a,n/a,16249948.0,16253948.0,0.0,0.0,0.0,16251930.0,16250957.0,16252949.0,16250957.0,16251547.0,16252955.0,16253949.0,4000.0,1009.0,590.0,994.0,1992.0,-16252955.0,0.0,0.0,0.0,1.0,0.0,0.0,0.0,-1.1699978630911367,-11.693055566632736,0.0034615321393236813,1.1596132666731696,16251920.0,16251987.0,67.0,416.6052159458377,10.586379469173199,10.943011799686932,-3.0321631345505766,373.0,-3.0226913657134444,0.0,0.0,0.0,0.0,0.0,0.0,0.0,0.0,0.0,0.0,0.0,0.0,0.0,-9.961822639239841,-0.04442748701436238,0.48333333333333334
163,18677.58067,3.874501,2,64,2,2,1,2,1,1,-40.67307692,n/a,n/a,16253955.0,16257832.0,0.0,0.0,0.0,16255849.0,16254838.0,16256831.0,16254838.0,16255232.0,16256838.0,16257832.0,3877.0,883.0,394.0,994.0,1993.0,-16256838.0,0.0,0.0,0.0,1.0,0.0,0.0,0.0,-1.3569205986145763,7.29344821755334,0.1107690284583342,0.4603837745299434,16255828.0,16255887.0,59.0,365.54873851304325,8.657430977281946,8.858445576298301,-0.040394181857753717,596.0,-0.056690658143606534,1.0,-1.3569205986145763,7.29344821755334,0.1107690284583342,0.4603837745299434,16255828.0,16255887.0,59.0,365.54873851304325,8.657430977281946,8.858445576298301,-0.040394181857753717,-0.056690658143606534,9.994546091319975,0.006346783859196312,0.49583333333333335
164,18681.46346,3.9994585,2,65,2,2,1,2,2,2,-40.67307692,n/a,n/a,16257838.0,16261839.0,0.0,0.0,0.0,16259698.0,16258848.0,16260839.0,16258848.0,16259438.0,16260846.0,16261839.0,4001.0,1010.0,590.0,993.0,1991.0,-16260846.0,0.0,0.0,0.0,1.0,0.0,0.0,0.0,-1.5369202698593643,7.864601020541618,-0.10384596417968683,0.13153822129426843,16259761.0,16259809.0,48.0,349.0378240483906,9.404467464382774,9.409914563154878,-0.025031589438898234,323.0,0.03237734557867576,1.0,-1.5369202698593643,7.864601020541618,-0.10384596417968683,0.13153822129426843,16259761.0,16259809.0,48.0,349.0378240483906,9.404467464382774,9.409914563154878,-0.025031589438898234,0.03237734557867576,9.896375735079571,0.12058889332469451,0.4583333333333333
165,18685.47125,3.9994416,2,66,2,1,2,2,1,1,-40.67307692,n/a,n/a,16261846.0,16265847.0,0.0,0.0,0.0,16263395.0,16262855.0,16264847.0,16262855.0,16263245.0,16264853.0,16265847.0,4001.0,1009.0,390.0,994.0,1992.0,-16264853.0,0.0,0.0,0.0,1.0,0.0,0.0,0.0,-1.5784586555312405,-9.761520632890562,-0.1903842676627592,0.4361530495546855,16263658.0,16263713.0,55.0,253.7834012199537,8.207012387901573,8.203994751517804,-3.0651765996549787,413.0,-3.049481166827984,1.0,-1.5784586555312405,-9.761520632890562,-0.1903842676627592,0.4361530495546855,16263658.0,16263713.0,55.0,253.7834012199537,8.207012387901573,8.203994751517804,-3.0651765996549787,-3.049481166827984,-9.743666292038943,-0.298298841382144,0.4
166,18699.35275,3.6493254,2,67,2,2,1,2,5,2,-40.67307692,n/a,n/a,16275727.0,16279378.0,0.0,0.0,0.0,16276678.0,16276385.0,16278378.0,16276385.0,16277578.0,16278385.0,16279378.0,3651.0,658.0,1193.0,993.0,1993.0,-16278385.0,0.0,0.0,0.0,0.0,1.0,0.0,0.0,0.0,0.0,0.0,0.0,0.0,0.0,0.0,0.0,0.0,0.0,0.0,0.0,0.0,0.0,0.0,0.0,0.0,0.0,0.0,0.0,0.0,0.0,0.0,0.0,0.0,0.0,0.0,0.0,0.0
