onset	duration	run_number	trial_number	task	ext_mot_pos	ext_mot_ver_dir	staircase_num	fix_off_prct	trial_type	ext_mot_ori	direction_report	response_duration
17687.24479	3.7244641	1	1	2	1	1	1	2	1	-40.67307692	n/a	n/a
17690.97759	3.6911436	1	2	2	2	1	2	1	2	-40.67307692	n/a	n/a
17694.67717	3.5077221	1	3	2	1	2	1	1	2	-40.67307692	n/a	n/a
17698.19323	3.5078521	1	4	2	1	1	2	5	1	-40.67307692	n/a	n/a
17701.70948	3.5161042	1	5	2	1	2	1	4	1	-40.67307692	n/a	n/a
17705.24236	3.6910323	1	6	2	1	2	1	2	2	-40.67307692	n/a	n/a
17708.94173	3.5078244	1	7	2	1	2	1	4	2	-40.67307692	n/a	n/a
17712.45804	3.5076927	1	8	2	1	2	2	3	1	-40.67307692	n/a	n/a
17715.9742	3.5076866	1	9	2	1	2	1	4	1	-40.67307692	n/a	n/a
17719.49035	3.507706	1	10	2	2	1	1	4	2	-40.67307692	n/a	n/a
17723.00639	3.5078291	1	11	2	1	2	1	5	2	-40.67307692	n/a	n/a
17726.52257	3.5578344	1	12	2	2	1	2	5	2	-40.67307692	n/a	n/a
17730.08874	3.5078266	1	13	2	1	2	1	1	2	-40.67307692	n/a	n/a
17733.60489	3.7744611	1	14	2	1	2	1	1	2	-40.67307692	n/a	n/a
17737.38769	3.5078386	1	15	2	1	1	1	5	2	-40.67307692	n/a	n/a
17740.90386	3.5911622	1	16	2	1	2	2	5	2	-40.67307692	n/a	n/a
17744.50335	3.507947	1	17	2	1	2	1	2	2	-40.67307692	n/a	n/a
17748.01963	3.5078568	1	18	2	1	1	1	2	1	-40.67307692	n/a	n/a
17751.53568	3.5080019	1	19	2	1	1	1	3	1	-40.67307692	n/a	n/a
17755.05198	3.5077156	1	20	2	1	2	2	3	2	-40.67307692	n/a	n/a
17758.56803	3.9994354	1	21	2	1	2	2	4	1	-40.67307692	n/a	n/a
17762.57591	3.6660354	1	22	2	2	2	2	4	1	-40.67307692	n/a	n/a
17766.25027	3.5078512	1	23	2	2	2	2	2	1	-40.67307692	n/a	n/a
17769.76658	3.5077146	1	24	2	2	2	2	5	1	-40.67307692	n/a	n/a
17773.28276	3.5077089	1	25	2	1	1	2	2	2	-40.67307692	n/a	n/a
17776.7989	3.5077234	1	26	2	2	2	1	2	2	-40.67307692	n/a	n/a
17780.31496	3.5079937	1	27	2	1	2	2	1	1	-40.67307692	n/a	n/a
17783.83112	3.5078415	1	28	2	2	2	1	4	1	-40.67307692	n/a	n/a
17787.34741	3.6576812	1	29	2	1	1	2	5	2	-40.67307692	n/a	n/a
17791.01356	3.507707	1	30	2	2	2	1	4	1	-40.67307692	n/a	n/a
17794.5296	3.5078566	1	31	2	2	2	2	1	2	-40.67307692	n/a	n/a
17798.04579	3.5078315	1	32	2	2	1	2	4	2	-40.67307692	n/a	n/a
17801.56194	3.5078762	1	33	2	1	2	2	1	1	-40.67307692	n/a	n/a
17805.0781	3.5078455	1	34	2	1	1	2	2	2	-40.67307692	n/a	n/a
17808.5943	3.5079769	1	35	2	2	1	2	2	2	-40.67307692	n/a	n/a
17812.11047	3.5078561	1	36	2	1	2	2	2	2	-40.67307692	n/a	n/a
17815.62663	3.5078629	1	37	2	2	1	1	4	1	-40.67307692	n/a	n/a
17819.14293	3.507725	1	38	2	1	2	1	5	2	-40.67307692	n/a	n/a
17822.6591	3.9993163	1	39	2	1	2	1	5	1	-40.67307692	n/a	n/a
17826.66687	3.5077403	1	40	2	1	1	2	2	2	-40.67307692	n/a	n/a
17830.18296	3.5078177	1	41	2	2	2	2	4	1	-40.67307692	n/a	n/a
17833.69908	3.5078528	1	42	2	1	1	1	2	2	-40.67307692	n/a	n/a
17837.21538	3.5076938	1	43	2	2	2	1	4	1	-40.67307692	n/a	n/a
17840.73144	3.9160967	1	44	2	2	2	2	1	1	-40.67307692	n/a	n/a
17844.65587	3.5078829	1	45	2	1	1	1	3	2	-40.67307692	n/a	n/a
17848.17205	3.5078367	1	46	2	2	2	2	3	2	-40.67307692	n/a	n/a
17851.68839	3.507681054	1	47	2	2	2	2	3	2	-40.67307692	n/a	n/a
17855.20454	3.7160091	1	48	2	2	2	2	4	2	-40.67307692	n/a	n/a
17858.92888	3.507855	1	49	2	2	2	1	2	2	-40.67307692	n/a	n/a
17862.44507	3.5578238	1	50	2	2	2	1	3	2	-40.67307692	n/a	n/a
17866.0113	3.5077684	1	51	2	2	1	1	5	1	-40.67307692	n/a	n/a
17869.5274	3.9994483	1	52	2	2	2	2	3	1	-40.67307692	n/a	n/a
17873.53517	3.5078474	1	53	2	2	2	2	5	2	-40.67307692	n/a	n/a
17877.05134	3.5744975	1	54	2	2	2	1	5	2	-40.67307692	n/a	n/a
17880.63429	3.5077111	1	55	2	2	1	1	1	2	-40.67307692	n/a	n/a
17884.15036	3.507824	1	56	2	1	2	1	3	2	-40.67307692	n/a	n/a
17887.66651	3.507846	1	57	2	1	1	2	1	1	-40.67307692	n/a	n/a
17891.18285	3.5076747	1	58	2	1	2	1	2	2	-40.67307692	n/a	n/a
17894.69884	3.757821	1	59	2	2	1	2	5	1	-40.67307692	n/a	n/a
17898.46499	3.5078634	1	60	2	1	2	2	3	2	-40.67307692	n/a	n/a
17901.98119	3.5078393	1	61	2	1	2	2	4	2	-40.67307692	n/a	n/a
17905.49735	3.7578029	1	62	2	2	1	2	2	1	-40.67307692	n/a	n/a
17909.26349	3.5078143	1	63	2	2	2	2	5	2	-40.67307692	n/a	n/a
17912.77963	3.816161	1	64	2	1	1	2	4	2	-40.67307692	n/a	n/a
17916.60426	3.5077318	1	65	2	2	2	1	3	1	-40.67307692	n/a	n/a
17920.12032	3.9161084	1	66	2	1	1	1	4	1	-40.67307692	n/a	n/a
17924.04475	3.6744812	1	67	2	2	1	1	1	1	-40.67307692	n/a	n/a
17927.72757	3.5078177	1	68	2	1	2	1	4	1	-40.67307692	n/a	n/a
17931.24373	3.6745763	1	69	2	2	2	2	5	2	-40.67307692	n/a	n/a
17934.92657	3.5078142	1	70	2	1	2	1	3	2	-40.67307692	n/a	n/a
17938.44269	3.5078667	1	71	2	1	2	1	2	2	-40.67307692	n/a	n/a
17941.95888	3.5078401	1	72	2	1	2	1	3	1	-40.67307692	n/a	n/a
17945.47505	3.5079061	1	73	2	1	1	2	1	2	-40.67307692	n/a	n/a
17948.9912	3.6828781	1	74	2	1	2	1	3	1	-40.67307692	n/a	n/a
17952.6824	3.6661571	1	75	2	2	1	2	4	2	-40.67307692	n/a	n/a
17956.3569	3.999486	1	76	2	2	1	1	2	1	-40.67307692	n/a	n/a
17960.36466	3.507847	1	77	2	2	2	1	2	1	-40.67307692	n/a	n/a
17963.88082	3.5078688	1	78	2	2	2	1	2	2	-40.67307692	n/a	n/a
17967.39713	3.5077444	1	79	2	2	1	1	4	1	-40.67307692	n/a	n/a
17970.91318	3.7078714	1	80	2	1	2	2	1	1	-40.67307692	n/a	n/a
17974.62935	3.4995097	1	81	2	2	2	1	2	1	-40.67307692	n/a	n/a
17978.1372	3.9161222	1	82	2	1	2	2	5	2	-40.67307692	n/a	n/a
17982.06181	3.5076789	1	83	2	2	2	2	5	2	-40.67307692	n/a	n/a
17985.57778	3.5078806	1	84	2	2	2	2	2	1	-40.67307692	n/a	n/a
17989.09399	3.5078257	1	85	2	1	1	1	5	2	-40.67307692	n/a	n/a
17992.61034	3.7576328	1	86	2	2	2	2	3	1	-40.67307692	n/a	n/a
17996.37643	3.5077065	1	87	2	2	2	1	2	2	-40.67307692	n/a	n/a
18010.75781	3.5077911	1	88	2	2	2	1	4	1	-40.67307692	n/a	n/a
18014.27394	3.50771	1	89	2	1	2	1	3	1	-40.67307692	n/a	n/a
18017.79002	3.5078319	1	90	2	1	2	2	4	2	-40.67307692	n/a	n/a
18021.30618	3.508060102	1	91	2	2	2	2	5	2	-40.67307692	n/a	n/a
18024.82241	3.5077801	1	92	2	2	2	1	2	2	-40.67307692	n/a	n/a
18028.33848	3.5078846	1	93	2	1	2	2	2	1	-40.67307692	n/a	n/a
18031.85469	3.508065478	1	94	2	1	2	2	1	2	-40.67307692	n/a	n/a
18035.37088	3.5078313	1	95	2	2	1	2	5	2	-40.67307692	n/a	n/a
18038.88704	3.5080173	1	96	2	1	2	2	1	1	-40.67307692	n/a	n/a
18042.40325	3.5078103	1	97	2	1	1	2	4	1	-40.67307692	n/a	n/a
18045.9194	3.5078271	1	98	2	1	1	2	2	2	-40.67307692	n/a	n/a
18049.43556	3.5078713	1	99	2	2	2	1	4	1	-40.67307692	n/a	n/a
18052.95177	3.5078289	1	100	2	2	1	2	3	2	-40.67307692	n/a	n/a
