,onset,duration,run_number,trial_number,task,ext_mot_pos,ext_mot_ver_dir,staircase_num,fix_off_prct,trial_type,ext_mot_ori,direction_report,response_duration,trial_onset,trial_offset,button_press_onset,button_left,button_right,fix_break,motion_onset,motion_offset,fixation_onset,fixation_offset,response_onset,response_offset,trial_duration,fix_check_duration,fixation_duration,response_duration,motion_duration,reaction_time,miss_time_trial,blink_trial,no_saccade_trial,main_sac_trial,innacurate_sac_trial,early_sac_trial,late_sac_trial,sac_x_onset_trial,sac_x_offset_trial,sac_y_onset_trial,sac_y_offset_trial,sac_t_onset_trial,sac_t_offset_trial,sac_dur_trial,sac_vpeak_trial,sac_dist_trial,sac_amp_trial,sac_dist_ang_trial,sac_lat_trial,sac_amp_ang_trial,cor_sac_trial,cor_sac_x_onset_trial,cor_sac_x_offset_trial,cor_sac_y_onset_trial,cor_sac_y_offset_trial,cor_sac_t_onset_trial,cor_sac_t_offset_trial,cor_sac_dur_trial,cor_sac_vpeak_trial,cor_sac_dist_trial,cor_sac_amp_trial,cor_sac_dist_ang_trial,cor_sac_amp_ang_trial
0,1279.620551,3.6244393,1,1,2,2,2,2,5,1,22.16346154,n/a,n/a,1249914.0,1253538.0,0.0,0.0,0.0,1252130.0,1250537.0,1252538.0,1250537.0,1251736.0,1252545.0,1253539.0,3624.0,623.0,1199.0,994.0,2001.0,-1252545.0,0.0,0.0,0.0,1.0,0.0,0.0,0.0,0.8307677134374947,11.042287524440033,-0.7061525564218697,0.32192248895702763,1252105.0,1252177.0,72.0,447.65059805971623,10.263141582840419,11.84032488443237,-0.10033986090128794,369.0,-0.1013267845531051,1.0,2.0457654943398316,2.184226779912747,-0.328845553235675,-0.3599993424895802,1252895.0,1252918.0,23.0,35.77381773408272,0.1419228177122385,0.2286970129682084,0.22131444234778588,0.8818719385800344
1,1283.253334,3.5078381,1,2,2,2,2,1,5,2,22.16346154,n/a,n/a,1253545.0,1257054.0,0.0,0.0,0.0,1255511.0,1254061.0,1256054.0,1254062.0,1255254.0,1256061.0,1257054.0,3509.0,517.0,1192.0,993.0,1993.0,-1256061.0,0.0,0.0,0.0,1.0,0.0,0.0,0.0,1.0453827060755156,10.017674011200459,-0.3426916817929658,0.7096140885611933,1255495.0,1255568.0,73.0,429.8010993201861,9.033789830317136,10.845324903913783,-0.11675057839306797,241.0,-0.1161204920450299,1.0,-33.26532385889301,0.7165371528398408,18.726888873736858,-0.951921338313796,1256097.0,1256158.0,61.0,13255.929129552133,39.26859367462296,46.45910264712623,0.5249081952618043,2.3901297969821114
2,1286.769492,3.5078221,1,3,2,1,1,2,4,1,22.16346154,n/a,n/a,1257061.0,1260571.0,0.0,0.0,0.0,1258854.0,1257577.0,1259570.0,1257577.0,1258571.0,1259577.0,1260571.0,3510.0,516.0,994.0,994.0,1993.0,-1259577.0,0.0,0.0,0.0,1.0,0.0,0.0,0.0,0.7511524742330696,-9.796135954283791,-0.33576861751432235,-1.4573050306549393,1258838.0,1258905.0,67.0,604.4342406461068,10.606749602037656,12.084460551713734,3.0356566284616684,267.0,3.0316629810807454,1.0,-33.26532385889301,0.5573066744309868,18.726888873736858,-0.5538451422916632,1259503.0,1259585.0,82.0,12267.182937784171,38.9322108335833,45.20721017732418,0.5181094680591977,0.6551400655558297
3,1290.285641,3.5078446,1,4,2,1,2,2,5,2,22.16346154,n/a,n/a,1260577.0,1264086.0,0.0,0.0,0.0,1262520.0,1261093.0,1263086.0,1261094.0,1262287.0,1263093.0,1264086.0,3509.0,517.0,1193.0,993.0,1993.0,-1263093.0,0.0,0.0,0.0,1.0,0.0,0.0,0.0,0.5019221602018197,-9.958827964831968,0.006923064278647363,0.2699995068671842,1262498.0,1262569.0,71.0,576.197531176951,10.464057644768564,11.736798302159805,-3.11644904552705,211.0,-3.095272105054107,0.0,0.0,0.0,0.0,0.0,0.0,0.0,0.0,0.0,0.0,0.0,0.0,0.0
4,1293.801822,3.5162216,1,5,2,2,2,1,2,2,22.16346154,n/a,n/a,1264093.0,1267612.0,0.0,0.0,0.0,1265735.0,1264618.0,1266612.0,1264619.0,1265211.0,1266618.0,1267613.0,3519.0,526.0,592.0,995.0,1994.0,-1266618.0,0.0,0.0,0.0,1.0,0.0,0.0,0.0,0.3253840210963513,9.529597979555927,-0.4880760316445289,-0.16615354268749735,1265716.0,1265787.0,71.0,395.3936675023321,9.209841946635043,10.762733978676346,-0.03496130343631637,505.0,0.03796051342070826,1.0,1.1803824595091077,1.9661502551354024,-0.10384596417968683,0.05192298208984342,1266658.0,1266682.0,24.0,96.40814103583315,0.8010586703015742,0.8112475552996915,-0.1957006462186569,-0.19321148384780604
5,1297.326278,3.6661505,1,6,2,2,1,1,3,2,22.16346154,n/a,n/a,1267617.0,1271285.0,0.0,0.0,0.0,1269493.0,1268294.0,1270285.0,1268294.0,1269084.0,1270292.0,1271286.0,3668.0,677.0,790.0,994.0,1991.0,-1270292.0,0.0,0.0,0.0,1.0,0.0,0.0,0.0,0.5573066744309868,11.069979781554615,-0.7892293277656184,-0.9380752097565052,1269477.0,1269548.0,71.0,464.6117501158809,10.513726787101994,11.989860430096963,0.014157763238683882,393.0,0.046498251805454284,0.0,0.0,0.0,0.0,0.0,0.0,0.0,0.0,0.0,0.0,0.0,0.0,0.0
6,1301.000749,3.5078335,1,7,2,2,1,1,4,2,22.16346154,n/a,n/a,1271292.0,1274802.0,0.0,0.0,0.0,1273002.0,1271808.0,1273801.0,1271808.0,1272802.0,1273808.0,1274802.0,3510.0,516.0,994.0,994.0,1993.0,-1273808.0,0.0,0.0,0.0,1.0,0.0,0.0,0.0,0.3703839389075513,10.966133817374928,-0.44999917811197626,-0.758075538511713,1272990.0,1273062.0,72.0,442.75335564026255,10.60022766410602,12.302441546276407,0.029067276389034405,188.0,0.06729810431510817,1.0,0.3703839389075513,10.966133817374928,-0.44999917811197626,-0.758075538511713,1272990.0,1273062.0,72.0,442.75335564026255,10.60022766410602,12.302441546276407,0.029067276389034405,0.06729810431510817
7,1304.516918,3.5078236,1,8,2,1,1,2,4,1,22.16346154,n/a,n/a,1274808.0,1278317.0,0.0,0.0,0.0,1276574.0,1275325.0,1277317.0,1275325.0,1276318.0,1277324.0,1278317.0,3509.0,517.0,993.0,993.0,1992.0,-1277324.0,0.0,0.0,0.0,1.0,0.0,0.0,0.0,0.01384612855729079,-10.311904243042902,-0.6092296565208302,-0.8446138419947854,1276561.0,1276634.0,73.0,586.832082413868,10.328432913630834,11.60714028091874,3.1188007578716226,243.0,3.0980381258860783,1.0,0.01384612855729079,-10.311904243042902,-0.6092296565208302,-0.8446138419947854,1276561.0,1276634.0,73.0,586.832082413868,10.328432913630834,11.60714028091874,3.1188007578716226,3.0980381258860783
8,1308.033075,3.5078288,1,9,2,1,1,2,1,2,22.16346154,n/a,n/a,1278324.0,1281833.0,0.0,0.0,0.0,1279707.0,1278841.0,1280834.0,1278841.0,1279234.0,1280840.0,1281833.0,3509.0,517.0,393.0,993.0,1993.0,-1280840.0,0.0,0.0,0.0,1.0,0.0,0.0,0.0,-0.10038443204036315,-9.730366843636657,0.006923064278647363,-0.5019221602018197,1279696.0,1279761.0,65.0,593.0424470430419,9.643416651277208,10.916305338821665,3.088802064390094,462.0,3.076859582356326,1.0,-33.26532385889301,-0.062307578507810525,18.726888873736858,0.45346071025129997,1280409.0,1280499.0,90.0,10620.887584042366,37.899320138514256,42.89942711706625,0.5031153099651976,0.5571367403709765
9,1311.549233,3.5078406,1,10,2,2,1,2,1,1,22.16346154,n/a,n/a,1281840.0,1285350.0,0.0,0.0,0.0,1283190.0,1282357.0,1284350.0,1282357.0,1282750.0,1284356.0,1285350.0,3510.0,517.0,393.0,994.0,1993.0,-1284356.0,0.0,0.0,0.0,1.0,0.0,0.0,0.0,0.15576894626953025,10.422673271501232,-0.21807652477734077,-0.5573066744309868,1283173.0,1283251.0,78.0,469.0549902750743,10.272507070715282,12.046406874358196,0.03302911685916688,423.0,0.06815464485014283,1.0,-33.26532385889301,-0.6784602993072881,18.726888873736858,0.6542295743320262,1283793.0,1283833.0,40.0,11336.43074788671,37.262913074576176,42.01606926461137,0.5063676620686326,0.6836832911586282
10,1315.065559,3.5076423,1,11,2,2,1,2,1,1,22.16346154,n/a,n/a,1285357.0,1288866.0,0.0,0.0,0.0,1286623.0,1285873.0,1287866.0,1285873.0,1286266.0,1287873.0,1288866.0,3509.0,516.0,393.0,993.0,1993.0,-1287873.0,0.0,0.0,0.0,1.0,0.0,0.0,0.0,0.2526918461705697,10.374211821550716,0.0034615321393236813,-0.06576911064713421,1286606.0,1286681.0,75.0,433.8641570514259,10.12175673951513,11.435008351334377,0.006839838614824006,340.0,0.04572568075392154,0.0,0.0,0.0,0.0,0.0,0.0,0.0,0.0,0.0,0.0,0.0,0.0,0.0
11,1318.581589,3.507791,1,12,2,1,1,2,5,2,22.16346154,n/a,n/a,1288873.0,1292382.0,0.0,0.0,0.0,1290865.0,1289389.0,1291382.0,1289389.0,1290582.0,1291389.0,1292382.0,3509.0,516.0,1193.0,993.0,1993.0,-1291389.0,0.0,0.0,0.0,1.0,0.0,0.0,0.0,0.17999967124479208,-10.180366021748632,-0.22153805691666445,-1.2530746344348893,1290842.0,1290927.0,85.0,611.29999855307,10.411591857315246,11.865060241761563,3.042354065912662,260.0,3.0290346002711406,1.0,0.17999967124479208,-10.180366021748632,-0.22153805691666445,-1.2530746344348893,1290842.0,1290927.0,85.0,611.29999855307,10.411591857315246,11.865060241761563,3.042354065912662,3.0290346002711406
12,1322.097683,3.6245012,1,13,2,1,2,2,3,1,22.16346154,n/a,n/a,1292389.0,1296014.0,0.0,0.0,0.0,1294205.0,1293022.0,1295015.0,1293022.0,1293816.0,1295022.0,1296015.0,3625.0,633.0,794.0,993.0,1993.0,-1295022.0,0.0,0.0,0.0,1.0,0.0,0.0,0.0,0.28038410328515523,-10.03498167189707,-0.19730733194140657,-0.26653797472786445,1294184.0,1294259.0,75.0,561.6329228997866,10.315598090159455,11.675994202690088,3.1348813449584707,368.0,3.1163903987802066,0.0,0.0,0.0,0.0,0.0,0.0,0.0,0.0,0.0,0.0,0.0,0.0,0.0
13,1325.73051,3.5078486,1,14,2,1,1,1,1,2,22.16346154,n/a,n/a,1296021.0,1299531.0,0.0,0.0,0.0,1297288.0,1296538.0,1298531.0,1296538.0,1296931.0,1298538.0,1299531.0,3510.0,517.0,393.0,993.0,1993.0,-1298538.0,0.0,0.0,0.0,1.0,0.0,0.0,0.0,0.3599993424895802,-10.273827389510348,-0.4569222423906236,-0.45346071025129997,1297274.0,1297348.0,74.0,582.2526747893831,10.633827295400327,12.357963042997811,-3.1412671327679575,343.0,3.116940881910824,1.0,0.3599993424895802,-10.273827389510348,-0.4569222423906236,-0.45346071025129997,1297274.0,1297348.0,74.0,582.2526747893831,10.633827295400327,12.357963042997811,-3.1412671327679575,3.116940881910824
14,1329.246898,3.507603165,1,15,2,1,1,2,5,1,22.16346154,n/a,n/a,1299538.0,1303047.0,0.0,0.0,0.0,1301514.0,1300054.0,1302048.0,1300054.0,1301247.0,1302054.0,1303047.0,3509.0,516.0,1193.0,993.0,1994.0,-1302054.0,0.0,0.0,0.0,1.0,0.0,0.0,0.0,0.2561533783098934,-10.149212232494728,0.28038410328515523,-1.076536495329421,1301491.0,1301558.0,67.0,619.9149959053155,10.49346782553127,11.675119825695832,3.011918560271516,244.0,2.9936996123073305,1.0,-12.703822951315022,-12.070362569818935,-1.1630747988124932,-1.1388440738372314,1301975.0,1301994.0,19.0,72.30193401210887,0.6339236412676185,0.6430721830329562,-0.03823272643560418,-0.1731131107797553
15,1332.762829,3.5078283,1,16,2,2,1,2,2,2,22.16346154,n/a,n/a,1303054.0,1306563.0,0.0,0.0,0.0,1304463.0,1303571.0,1305563.0,1303571.0,1304164.0,1305570.0,1306563.0,3509.0,517.0,593.0,993.0,1992.0,-1305570.0,0.0,0.0,0.0,1.0,0.0,0.0,0.0,-0.12461515701562499,9.758059100751243,0.3115378925390605,-0.020769192835938154,1304446.0,1304512.0,66.0,393.66759458649665,9.888259628676742,11.035102236214128,0.03361255465990019,282.0,0.06592131983891279,1.0,-2.48884160817316,-1.4226897092617103,-0.7303832813971315,-0.747690942093746,1306045.0,1306066.0,21.0,173.6295687806043,1.0662923739159347,1.1395382729603178,0.016232340403119588,-0.11568904720657489
16,1336.278984,3.5078437,1,17,2,2,1,1,4,2,22.16346154,n/a,n/a,1306570.0,1310080.0,0.0,0.0,0.0,1308512.0,1307086.0,1309080.0,1307087.0,1308080.0,1309086.0,1310080.0,3510.0,517.0,993.0,994.0,1994.0,-1309086.0,0.0,0.0,0.0,1.0,0.0,0.0,0.0,0.09346136776171972,10.77228801757285,0.22499958905598813,-1.0488442382148355,1308502.0,1308570.0,68.0,467.11912338639684,10.75453470462541,11.766550720363322,0.11872586205308434,422.0,0.13781985968968305,0.0,0.0,0.0,0.0,0.0,0.0,0.0,0.0,0.0,0.0,0.0,0.0,0.0
17,1339.795158,3.5078097,1,18,2,1,1,1,4,1,22.16346154,n/a,n/a,1310086.0,1313595.0,0.0,0.0,0.0,1311902.0,1310603.0,1312595.0,1310603.0,1311596.0,1312602.0,1313595.0,3509.0,517.0,993.0,993.0,1992.0,-1312602.0,0.0,0.0,0.0,1.0,0.0,0.0,0.0,0.044999917811196055,-11.229210259963468,0.32192248895702763,-1.3015360843854091,1311883.0,1311954.0,71.0,626.3768634755144,11.390497481321741,12.287791624766916,2.9985781849758872,287.0,2.9843170998988193,1.0,0.044999917811196055,-11.229210259963468,0.32192248895702763,-1.3015360843854091,1311883.0,1311954.0,71.0,626.3768634755144,11.390497481321741,12.287791624766916,2.9985781849758872,2.9843170998988193
18,1343.311417,3.5076789,1,19,2,2,1,2,3,1,22.16346154,n/a,n/a,1313602.0,1317111.0,0.0,0.0,0.0,1315352.0,1314119.0,1316112.0,1314119.0,1314912.0,1316118.0,1317111.0,3509.0,517.0,793.0,993.0,1993.0,-1316118.0,0.0,0.0,0.0,1.0,0.0,0.0,0.0,0.06576911064713421,9.33229064761452,0.21461499263802103,-0.18346120338411182,1315334.0,1315397.0,63.0,487.272043044422,9.275067981040348,10.653564612748859,0.04293213915625033,422.0,0.06600622037513161,1.0,-33.26532385889301,0.3011532961210934,18.726888873736858,-0.4846144995052052,1316067.0,1316123.0,56.0,12394.152985062028,38.67544764392747,45.304554459165615,0.5198343988656846,0.7363759681536464
19,1346.827449,3.5078348,1,20,2,1,1,1,2,1,22.16346154,n/a,n/a,1317118.0,1320628.0,0.0,0.0,0.0,1318628.0,1317635.0,1319628.0,1317635.0,1318228.0,1319635.0,1320628.0,3510.0,517.0,593.0,993.0,1993.0,-1319635.0,0.0,0.0,0.0,1.0,0.0,0.0,0.0,0.11423056059765394,-10.793057210408783,0.13153822129426843,-0.38769159960416577,1318602.0,1318676.0,74.0,671.2179685996374,10.91963946870302,12.152875387211251,3.094024628493174,374.0,3.079173843593836,0.0,0.0,0.0,0.0,0.0,0.0,0.0,0.0,0.0,0.0,0.0,0.0,0.0
20,1350.343737,3.5243496,1,21,2,1,2,1,4,1,22.16346154,n/a,n/a,1320635.0,1324161.0,0.0,0.0,0.0,1322428.0,1321168.0,1323160.0,1321168.0,1322161.0,1323167.0,1324161.0,3526.0,533.0,993.0,994.0,1992.0,-1323167.0,0.0,0.0,0.0,1.0,0.0,0.0,0.0,0.38769159960416577,-10.23921206811712,-0.02769225711458158,-0.12807668915494866,1322407.0,1322476.0,69.0,593.9960685937258,10.62737778556988,11.725073429573685,3.1321466804715765,246.0,-3.1144286339662632,0.0,0.0,0.0,0.0,0.0,0.0,0.0,0.0,0.0,0.0,0.0,0.0,0.0
21,1353.876436,3.5080387,1,22,2,1,1,2,4,2,22.16346154,n/a,n/a,1324167.0,1327677.0,0.0,0.0,0.0,1325893.0,1324684.0,1326678.0,1324684.0,1325677.0,1326683.0,1327677.0,3510.0,517.0,993.0,994.0,1994.0,-1326683.0,0.0,0.0,0.0,1.0,0.0,0.0,0.0,0.41538385671874734,-8.844214615969996,-0.2976917639817697,-0.6853833635859315,1325869.0,1325936.0,67.0,606.9219684279477,9.26771107943182,10.563308143817151,3.09974793492436,192.0,3.086512223718708,0.0,0.0,0.0,0.0,0.0,0.0,0.0,0.0,0.0,0.0,0.0,0.0,0.0
22,1357.39277,3.507675,1,23,2,2,2,2,4,1,22.16346154,n/a,n/a,1327684.0,1331192.0,0.0,0.0,0.0,1329516.0,1328200.0,1330193.0,1328200.0,1329193.0,1330200.0,1331192.0,3508.0,516.0,993.0,992.0,1993.0,-1330200.0,0.0,0.0,0.0,1.0,0.0,0.0,0.0,0.5019221602018197,10.246135132395768,-0.09692289990103947,-0.15230741413020657,1329503.0,1329575.0,72.0,425.45603451913865,9.74437036918698,11.415396162865907,0.005683775383545968,310.0,0.047929263766243374,1.0,-0.17999967124479208,-1.391535920007805,0.36692240676822757,0.03807685353255263,1331126.0,1331163.0,37.0,198.22708262912553,1.2553722475623041,1.9850008086912048,2.8765497936923388,-2.9414611224544958
23,1360.908772,3.5078316,1,24,2,2,2,1,5,1,22.16346154,n/a,n/a,1331200.0,1334709.0,0.0,0.0,0.0,1333299.0,1331716.0,1333709.0,1331716.0,1332910.0,1333716.0,1334709.0,3509.0,516.0,1194.0,993.0,1993.0,-1333716.0,0.0,0.0,0.0,1.0,0.0,0.0,0.0,0.21461499263802103,10.311904243042905,-0.2699995068671842,0.5988450601028592,1333278.0,1333346.0,68.0,419.5115774858896,10.134601180505102,11.253768925992116,-0.08583587860704514,368.0,-0.07882430764761136,1.0,0.03807685353255263,0.23538418547395523,-0.35653781035025656,0.0692306427864579,1334136.0,1334165.0,29.0,33.4813652994183,0.46926427407620264,0.46499342440726493,-1.1368429574010033,1.9844855400737598
24,1364.42493,3.5078147,1,25,2,1,1,1,4,2,22.16346154,n/a,n/a,1334716.0,1338225.0,0.0,0.0,0.0,1336525.0,1335232.0,1337226.0,1335232.0,1336225.0,1337232.0,1338225.0,3509.0,516.0,993.0,993.0,1994.0,-1337232.0,0.0,0.0,0.0,1.0,0.0,0.0,0.0,0.18346120338411182,-10.450365528615817,0.0553845142291671,-0.6888448957252552,1336502.0,1336580.0,78.0,624.5721159472425,10.659838102937464,12.02953390181399,3.0717196093092585,277.0,3.0577584211192894,0.0,0.0,0.0,0.0,0.0,0.0,0.0,0.0,0.0,0.0,0.0,0.0,0.0
25,1367.94109,3.5078079,1,26,2,2,2,2,3,2,22.16346154,n/a,n/a,1338232.0,1341741.0,0.0,0.0,0.0,1339958.0,1338748.0,1340742.0,1338749.0,1339541.0,1340749.0,1341741.0,3509.0,517.0,792.0,992.0,1994.0,-1340749.0,0.0,0.0,0.0,1.0,0.0,0.0,0.0,0.044999917811196055,10.076520057568942,0.21807652477734077,0.1730766069661447,1339939.0,1340006.0,67.0,477.94533885689316,10.03162107074267,11.428092527678677,0.004485822222893319,398.0,0.045753371422736736,1.0,-33.26532385889301,-0.0553845142291671,18.726888873736858,0.010384596417967108,1340551.0,1340597.0,46.0,10450.148392325926,38.120960161558735,43.17651571636951,0.5132105634714598,2.4483325273958974
26,1371.457208,3.5078658,1,27,2,2,2,2,2,2,22.16346154,n/a,n/a,1341748.0,1345258.0,0.0,0.0,0.0,1343275.0,1342265.0,1344257.0,1342265.0,1342858.0,1344264.0,1345258.0,3510.0,517.0,593.0,994.0,1992.0,-1344264.0,0.0,0.0,0.0,1.0,0.0,0.0,0.0,0.01384612855729079,9.823828211398373,0.11423056059765394,-0.06576911064713421,1343256.0,1343321.0,65.0,400.68677830101166,9.811633317002387,11.215345434843545,0.018346565113120026,398.0,0.06084009699705157,1.0,-0.498460628062496,-0.5988450601028592,-0.04153838567187631,0.5157682887591105,1344028.0,1344069.0,41.0,31.777878930794614,0.5662753425334641,0.5627944566206037,-1.749009587489716,-1.9158889444467206
27,1374.973411,3.5078141,1,28,2,1,1,1,3,1,22.16346154,n/a,n/a,1345264.0,1348774.0,0.0,0.0,0.0,1346914.0,1345781.0,1347773.0,1345781.0,1346574.0,1347780.0,1348774.0,3510.0,517.0,793.0,994.0,1992.0,-1347780.0,0.0,0.0,0.0,1.0,0.0,0.0,0.0,-0.1384612855729158,-10.256519728813734,0.017307660696614473,-0.5849989315455684,1346897.0,1346973.0,76.0,649.4845570824973,10.135969607881389,11.541030553589026,3.08213493587252,323.0,3.071951996389885,1.0,-0.6092296565208302,0.048461449950519736,-0.44999917811197626,-0.4707683709479144,1347557.0,1347579.0,22.0,70.28274261035085,0.6580189593792606,0.6513753681656458,0.03156845648777926,-0.11183092955512057
28,1378.48955,3.507827,1,29,2,1,1,2,4,1,22.16346154,n/a,n/a,1348780.0,1352289.0,0.0,0.0,0.0,1350540.0,1349297.0,1351290.0,1349297.0,1350290.0,1351297.0,1352289.0,3509.0,517.0,993.0,992.0,1993.0,-1351297.0,0.0,0.0,0.0,1.0,0.0,0.0,0.0,0.33576861751432235,-10.498826978566337,-0.01384612855729079,-0.4569222423906236,1350523.0,1350590.0,67.0,616.1854013769897,10.843651514746316,11.863980133356064,3.100720858944132,233.0,3.0805752440778225,1.0,0.33576861751432235,-10.498826978566337,-0.01384612855729079,-0.4569222423906236,1350523.0,1350590.0,67.0,616.1854013769897,10.843651514746316,11.863980133356064,3.100720858944132,3.0805752440778225
29,1382.005706,3.5078332,1,30,2,1,2,1,5,1,22.16346154,n/a,n/a,1352296.0,1355806.0,0.0,0.0,0.0,1354256.0,1352813.0,1354806.0,1352813.0,1354006.0,1354813.0,1355806.0,3510.0,517.0,1193.0,993.0,1993.0,-1354813.0,0.0,0.0,0.0,1.0,0.0,0.0,0.0,0.10730749631901051,-9.702674586522072,-0.24923031403124998,0.373845471046871,1354238.0,1354301.0,63.0,592.2098245536796,9.829749330456691,11.074117043880221,-3.0781633879145383,232.0,-3.0793493266579186,1.0,0.10730749631901051,-9.702674586522072,-0.24923031403124998,0.373845471046871,1354238.0,1354301.0,63.0,592.2098245536796,9.829749330456691,11.074117043880221,-3.0781633879145383,-3.0793493266579186
30,1385.530217,3.5078246,1,31,2,2,2,1,2,2,22.16346154,n/a,n/a,1355822.0,1359330.0,0.0,0.0,0.0,1357396.0,1356339.0,1358330.0,1356339.0,1356929.0,1358337.0,1359330.0,3508.0,517.0,590.0,993.0,1991.0,-1358337.0,0.0,0.0,0.0,1.0,0.0,0.0,0.0,-0.079615239204425,9.415367418958272,-0.38769159960416577,0.15576894626953025,1357372.0,1357451.0,79.0,410.2061638705841,9.510522858588361,11.087892086155005,-0.05717422191429338,443.0,0.056849247332837916,1.0,-0.079615239204425,9.415367418958272,-0.38769159960416577,0.15576894626953025,1357372.0,1357451.0,79.0,410.2061638705841,9.510522858588361,11.087892086155005,-0.05717422191429338,0.056849247332837916
31,1389.046343,3.5078447,1,32,2,1,2,2,1,1,22.16346154,n/a,n/a,1359337.0,1362846.0,0.0,0.0,0.0,1360963.0,1359854.0,1361847.0,1359854.0,1360246.0,1361853.0,1362846.0,3509.0,517.0,392.0,993.0,1993.0,-1361853.0,0.0,0.0,0.0,0.0,0.0,0.0,1.0,0.1488458819908829,-10.221904407420505,0.017307660696614473,-0.15576894626953025,1360932.0,1361015.0,83.0,603.5423360087169,10.37219441956259,12.13196843942264,3.1249052841720575,686.0,3.1016367740842434,0.0,0.0,0.0,0.0,0.0,0.0,0.0,0.0,0.0,0.0,0.0,0.0,0.0
32,1392.562516,3.5078064,1,33,2,2,1,1,1,1,22.16346154,n/a,n/a,1362853.0,1366363.0,0.0,0.0,0.0,1364353.0,1363370.0,1365363.0,1363370.0,1363763.0,1365369.0,1366363.0,3510.0,517.0,393.0,994.0,1993.0,-1365369.0,0.0,0.0,0.0,1.0,0.0,0.0,0.0,-0.0034615321393236813,10.118058443240818,-0.33576861751432235,-0.4776914352265578,1364328.0,1364403.0,75.0,482.9181958869842,10.122514939391625,11.605268029834226,0.014020968969899227,565.0,0.03968065296547727,1.0,-33.26532385889301,-1.4123051128437394,18.726888873736858,-0.1349997534335921,1365168.0,1365217.0,49.0,11848.916649277713,37.01872020775365,43.80162423022843,0.5346303191511382,0.7570068676194531
33,1396.078792,3.507698,1,34,2,1,2,2,2,1,22.16346154,n/a,n/a,1366370.0,1369879.0,0.0,0.0,0.0,1367919.0,1366886.0,1368879.0,1366886.0,1367479.0,1368886.0,1369879.0,3509.0,516.0,593.0,993.0,1993.0,-1368886.0,0.0,0.0,0.0,1.0,0.0,0.0,0.0,0.35653781035025656,-9.976135625528583,-0.3011532961210934,-0.16615354268749735,1367898.0,1367971.0,73.0,601.8889526298415,10.333555306183026,11.674376759034098,-3.128528070309599,419.0,-3.110751056783653,0.0,0.0,0.0,0.0,0.0,0.0,0.0,0.0,0.0,0.0,0.0,0.0,0.0
34,1399.594823,3.5077986,1,35,2,2,2,1,4,2,22.16346154,n/a,n/a,1369885.0,1373395.0,0.0,0.0,0.0,1371645.0,1370402.0,1372395.0,1370402.0,1371395.0,1372402.0,1373395.0,3510.0,517.0,993.0,993.0,1993.0,-1372402.0,0.0,0.0,0.0,1.0,0.0,0.0,0.0,0.044999917811196055,8.76459937676557,-0.43269151741536177,-0.05192298208984342,1371623.0,1371698.0,75.0,392.5936352407574,8.72790922283747,9.884338199250916,-0.04364039700002613,228.0,0.04168631661514427,0.0,0.0,0.0,0.0,0.0,0.0,0.0,0.0,0.0,0.0,0.0,0.0,0.0
35,1403.110983,3.5078529,1,36,2,1,1,1,1,1,22.16346154,n/a,n/a,1373401.0,1376911.0,0.0,0.0,0.0,1374651.0,1373918.0,1375911.0,1373918.0,1374312.0,1375918.0,1376911.0,3510.0,517.0,394.0,993.0,1993.0,-1375918.0,0.0,0.0,0.0,1.0,0.0,0.0,0.0,-0.23538418547395523,-12.67959222633976,0.5019221602018197,0.0692306427864579,1374641.0,1374677.0,36.0,625.9774101747151,12.451728221961496,12.440499941945957,3.1068361412167085,329.0,3.0948301118163526,1.0,-0.23538418547395523,-12.67959222633976,0.5019221602018197,0.0692306427864579,1374641.0,1374677.0,36.0,625.9774101747151,12.451728221961496,12.440499941945957,3.1068361412167085,3.0948301118163526
36,1406.62716,3.5078383,1,37,2,2,1,1,5,1,22.16346154,n/a,n/a,1376918.0,1380427.0,0.0,0.0,0.0,1378944.0,1377434.0,1379427.0,1377434.0,1378628.0,1379434.0,1380427.0,3509.0,516.0,1194.0,993.0,1993.0,-1379434.0,0.0,0.0,0.0,1.0,0.0,0.0,0.0,0.1211536248763013,9.719982247218686,0.22153805691666445,-0.9692289990104104,1378922.0,1378991.0,69.0,469.5067846310068,9.672405962457358,10.975878704885805,0.12342282152130976,294.0,0.143993300585912,1.0,-33.26532385889301,-1.2738438272708235,18.726888873736858,0.6473065100533828,1379463.0,1379505.0,42.0,11212.668774457958,36.74678343826703,41.611091092824395,0.5143906994352986,0.6938009795078119
37,1410.143332,3.5078125,1,38,2,1,1,1,2,1,22.16346154,n/a,n/a,1380434.0,1383943.0,0.0,0.0,0.0,1381910.0,1380950.0,1382943.0,1380951.0,1381543.0,1382950.0,1383943.0,3509.0,517.0,592.0,993.0,1993.0,-1382950.0,0.0,0.0,0.0,1.0,0.0,0.0,0.0,0.024230724975261835,-11.166902681455658,0.43269151741536177,-0.21807652477734077,1381890.0,1381960.0,70.0,640.156014951867,11.210038624611133,12.458702408368431,3.083507740490719,347.0,3.0701268262744015,0.0,0.0,0.0,0.0,0.0,0.0,0.0,0.0,0.0,0.0,0.0,0.0,0.0
38,1413.659465,3.5079352,1,39,2,1,1,2,2,1,22.16346154,n/a,n/a,1383950.0,1387459.0,0.0,0.0,0.0,1385483.0,1384467.0,1386460.0,1384467.0,1385059.0,1386466.0,1387459.0,3509.0,517.0,592.0,993.0,1993.0,-1386466.0,0.0,0.0,0.0,1.0,0.0,0.0,0.0,-0.03461532139322895,-10.516134639262951,0.26653797472786445,0.22499958905598813,1385465.0,1385535.0,70.0,640.6536585426138,10.481601626104686,11.353762096092655,3.1376296624475413,406.0,3.1068293607857105,1.0,0.7096140885611933,0.1211536248763013,0.5642297387096302,0.65769110647135,1386770.0,1386804.0,34.0,52.503073918598275,0.5958361726046258,0.7783214796116634,-2.984084706182213,-0.31190558415213526
39,1417.175634,3.5078162,1,40,2,2,2,2,2,2,22.16346154,n/a,n/a,1387466.0,1390976.0,0.0,0.0,0.0,1389099.0,1387983.0,1389976.0,1387983.0,1388576.0,1389982.0,1390976.0,3510.0,517.0,593.0,994.0,1993.0,-1389982.0,0.0,0.0,0.0,1.0,0.0,0.0,0.0,0.4707683709479144,9.79959748642311,0.01384612855729079,0.3530762782109368,1389082.0,1389151.0,69.0,527.2701180211013,9.334994898775884,10.426946140495508,-0.036347621019020934,506.0,0.0385191440681958,0.0,0.0,0.0,0.0,0.0,0.0,0.0,0.0,0.0,0.0,0.0,0.0,0.0
40,1420.691859,3.5077794,1,41,2,2,1,2,3,1,22.16346154,n/a,n/a,1390983.0,1394492.0,0.0,0.0,0.0,1392809.0,1391499.0,1393492.0,1391499.0,1392292.0,1393499.0,1394492.0,3509.0,516.0,793.0,993.0,1993.0,-1393499.0,0.0,0.0,0.0,1.0,0.0,0.0,0.0,0.6680757028893171,11.17728727787363,-0.079615239204425,-0.3807685353255184,1392792.0,1392866.0,74.0,464.5383152620051,10.513525632990527,11.856711713645446,0.02864828645995785,500.0,0.06953943268129369,0.0,0.0,0.0,0.0,0.0,0.0,0.0,0.0,0.0,0.0,0.0,0.0,0.0
41,1424.20796,3.5078241,1,42,2,2,2,2,1,2,22.16346154,n/a,n/a,1394498.0,1398008.0,0.0,0.0,0.0,1395898.0,1395015.0,1397009.0,1395015.0,1395408.0,1397015.0,1398008.0,3510.0,517.0,393.0,993.0,1994.0,-1397015.0,0.0,0.0,0.0,1.0,0.0,0.0,0.0,0.4707683709479144,10.450365528615821,0.0034615321393236813,0.12807668915494866,1395884.0,1395955.0,71.0,407.12304362484997,9.980375161620499,11.320559165868298,-0.012486343765239822,476.0,0.03823105676073738,1.0,0.4707683709479144,10.450365528615821,0.0034615321393236813,0.12807668915494866,1395884.0,1395955.0,71.0,407.12304362484997,9.980375161620499,11.320559165868298,-0.012486343765239822,0.03823105676073738
42,1427.724114,3.5078591,1,43,2,2,2,2,1,2,22.16346154,n/a,n/a,1398014.0,1401525.0,0.0,0.0,0.0,1399531.0,1398531.0,1400524.0,1398531.0,1398925.0,1400531.0,1401525.0,3511.0,517.0,394.0,994.0,1993.0,-1400531.0,0.0,0.0,0.0,1.0,0.0,0.0,0.0,0.3253840210963513,10.806903338966078,-0.07269217492578157,-0.07615370706510526,1399515.0,1399588.0,73.0,439.8741956586191,10.48151988945692,12.095063376385834,0.0003302509787466944,590.0,0.04236935779157562,0.0,0.0,0.0,0.0,0.0,0.0,0.0,0.0,0.0,0.0,0.0,0.0,0.0
43,1431.240279,3.5078383,1,44,2,1,2,1,5,1,22.16346154,n/a,n/a,1401531.0,1405040.0,0.0,0.0,0.0,1403464.0,1402047.0,1404040.0,1402047.0,1403241.0,1404047.0,1405040.0,3509.0,516.0,1194.0,993.0,1993.0,-1404047.0,0.0,0.0,0.0,1.0,0.0,0.0,0.0,0.0553845142291671,-9.799597486423115,0.11769209273697762,0.6888448957252552,1403450.0,1403522.0,72.0,613.5288370404564,9.871518918461426,11.303647378868368,-3.083701668810171,209.0,3.078467062431677,0.0,0.0,0.0,0.0,0.0,0.0,0.0,0.0,0.0,0.0,0.0,0.0,0.0
44,1434.756484,3.5077816,1,45,2,1,2,2,5,2,22.16346154,n/a,n/a,1405047.0,1408556.0,0.0,0.0,0.0,1407023.0,1405564.0,1407557.0,1405564.0,1406757.0,1407563.0,1408556.0,3509.0,517.0,1193.0,993.0,1993.0,-1407563.0,0.0,0.0,0.0,1.0,0.0,0.0,0.0,0.2423072497526026,-10.304981178764258,0.15576894626953025,0.41538385671874734,1407004.0,1407068.0,64.0,613.4243970182293,10.550483074061265,11.382431448208044,-3.1169832480047637,247.0,-3.1044824922431427,0.0,0.0,0.0,0.0,0.0,0.0,0.0,0.0,0.0,0.0,0.0,0.0,0.0
45,1438.272598,3.507838,1,46,2,2,1,2,1,1,22.16346154,n/a,n/a,1408563.0,1412072.0,0.0,0.0,0.0,1409996.0,1409080.0,1411073.0,1409080.0,1409473.0,1411079.0,1412072.0,3509.0,517.0,393.0,993.0,1993.0,-1411079.0,0.0,0.0,0.0,1.0,0.0,0.0,0.0,0.1765381391054684,10.806903338966078,0.2976917639817697,-0.2526918461705697,1409977.0,1410050.0,73.0,482.8048051551144,10.644603628164452,12.278565861321761,0.051728477830465316,504.0,0.07930167030085764,1.0,0.32192248895702763,-0.2319226533346355,0.8065369884622328,0.747690942093746,1411491.0,1411513.0,22.0,68.77965544928404,0.5569625650017015,0.6523955050277036,3.0357397880386245,2.9493999604241457
46,1441.788767,3.5078117,1,47,2,2,1,2,1,1,22.16346154,n/a,n/a,1412079.0,1415589.0,0.0,0.0,0.0,1413389.0,1412596.0,1414588.0,1412596.0,1412989.0,1414595.0,1415589.0,3510.0,517.0,393.0,994.0,1992.0,-1414595.0,0.0,0.0,0.0,1.0,0.0,0.0,0.0,0.044999917811196055,10.311904243042905,0.3080763603997368,0.062307578507810525,1413366.0,1413437.0,71.0,468.49620626328374,10.269845506024627,11.854015168538583,0.023933392799417526,377.0,0.05668095901624295,0.0,0.0,0.0,0.0,0.0,0.0,0.0,0.0,0.0,0.0,0.0,0.0,0.0
47,1445.305044,3.5076858,1,48,2,2,2,2,4,1,22.16346154,n/a,n/a,1415596.0,1419105.0,0.0,0.0,0.0,1417378.0,1416112.0,1418104.0,1416112.0,1417105.0,1418112.0,1419105.0,3509.0,516.0,993.0,993.0,1992.0,-1418112.0,0.0,0.0,0.0,1.0,0.0,0.0,0.0,0.24923031403124998,8.951522112289002,0.6057681243815065,0.6680757028893171,1417359.0,1417407.0,48.0,275.29398717663406,8.702514853556048,8.722683236351475,-0.007159782189364526,254.0,0.026591586771185477,1.0,8.972291305124944,8.179600445219998,0.6784602993072881,0.7996139241835893,1417409.0,1417431.0,22.0,102.31220458271898,0.8018958786510317,0.8493177899049233,-2.989927899868179,2.9322072606363014
48,1448.821062,3.5078406,1,49,2,1,2,1,2,2,22.16346154,n/a,n/a,1419111.0,1422621.0,0.0,0.0,0.0,1420654.0,1419628.0,1421621.0,1419628.0,1420222.0,1421628.0,1422621.0,3510.0,517.0,594.0,993.0,1993.0,-1421628.0,0.0,0.0,0.0,1.0,0.0,0.0,0.0,0.11423056059765394,-9.83075127567702,0.4292299852760381,0.13153822129426843,1420634.0,1420734.0,100.0,684.2295195394929,9.949436371482346,12.38395911415081,3.1116677223597047,412.0,3.0856600129210903,1.0,0.11423056059765394,-9.83075127567702,0.4292299852760381,0.13153822129426843,1420634.0,1420734.0,100.0,684.2295195394929,9.949436371482346,12.38395911415081,3.1116677223597047,3.0856600129210903
49,1452.337225,3.5078683,1,50,2,2,1,2,2,1,22.16346154,n/a,n/a,1422627.0,1426137.0,0.0,0.0,0.0,1424144.0,1423144.0,1425137.0,1423144.0,1423738.0,1425144.0,1426137.0,3510.0,517.0,594.0,993.0,1993.0,-1425144.0,0.0,0.0,0.0,1.0,0.0,0.0,0.0,-0.08999983562239604,9.52267491527728,0.4223069209973947,-0.1626920105481776,1424129.0,1424197.0,68.0,466.9897802615153,9.630458951498293,11.072447931686105,0.06078207685514169,391.0,0.06945874985651439,1.0,12.984207054600173,12.388823526636642,-0.4742299030872381,-0.33923014965364207,1424509.0,1424534.0,25.0,62.12836811882611,0.6104969113741961,0.712613373138681,-2.9186186912608063,2.815233836883035
50,1455.853568,3.5076582,1,51,2,2,2,1,3,1,22.16346154,n/a,n/a,1426144.0,1429653.0,0.0,0.0,0.0,1427737.0,1426660.0,1428653.0,1426660.0,1427453.0,1428660.0,1429653.0,3509.0,516.0,793.0,993.0,1993.0,-1428660.0,0.0,0.0,0.0,1.0,0.0,0.0,0.0,-0.010384596417967108,10.17690448960931,0.38423006746484206,0.2007688640807263,1427712.0,1427795.0,83.0,461.5971098258812,10.188940913335282,11.291034465804563,0.01800688803755998,259.0,0.05459720625842566,1.0,13.223052772213457,12.388823526636642,-0.15576894626953025,0.024230724975261835,1428006.0,1428026.0,20.0,98.36309011955854,0.8534273934107659,0.8923236353201818,-2.929082890719392,-0.17152614197209887
51,1459.369561,3.5078267,1,52,2,1,1,2,2,1,22.16346154,n/a,n/a,1429660.0,1433169.0,0.0,0.0,0.0,1431160.0,1430177.0,1432170.0,1430177.0,1430769.0,1432176.0,1433169.0,3509.0,517.0,592.0,993.0,1993.0,-1432176.0,0.0,0.0,0.0,1.0,0.0,0.0,0.0,0.15230741413020657,-10.588826814188733,0.2976917639817697,0.14192281771223947,1431143.0,1431226.0,83.0,650.8508927412545,10.742263656948037,12.306142074413888,3.1270915753633237,374.0,3.1165556804125183,0.0,0.0,0.0,0.0,0.0,0.0,0.0,0.0,0.0,0.0,0.0,0.0,0.0
52,1462.88572,3.5078236,1,53,2,1,2,1,3,1,22.16346154,n/a,n/a,1433176.0,1436686.0,0.0,0.0,0.0,1434770.0,1433693.0,1435686.0,1433693.0,1434486.0,1435692.0,1436686.0,3510.0,517.0,793.0,994.0,1993.0,-1435692.0,0.0,0.0,0.0,1.0,0.0,0.0,0.0,0.1384612855729158,-10.613057539163995,0.24576878189192627,0.5296144173164012,1434751.0,1434811.0,60.0,636.4297197591304,10.755265007586829,11.781218735302867,-3.1151982695010734,265.0,-3.112206641316959,1.0,-2.8834562720559695,-1.8588427588163958,0.1765381391054684,0.24923031403124998,1436295.0,1436320.0,25.0,87.28126666031186,1.0271888841924752,1.0186201638771166,-0.07082727274536885,0.2227234758123205
53,1466.401878,3.507827,1,54,2,1,1,2,4,2,22.16346154,n/a,n/a,1436692.0,1440202.0,0.0,0.0,0.0,1438469.0,1437209.0,1439201.0,1437209.0,1438202.0,1439208.0,1440202.0,3510.0,517.0,993.0,994.0,1992.0,-1439208.0,0.0,0.0,0.0,1.0,0.0,0.0,0.0,-0.1107690284583342,-10.844980192498626,0.19730733194140657,-0.5053836923411433,1438450.0,1438510.0,60.0,649.2944042074894,10.757186620572057,11.639161825016116,3.076223170690271,248.0,3.042693413825589,1.0,-0.1107690284583342,-10.844980192498626,0.19730733194140657,-0.5053836923411433,1438450.0,1438510.0,60.0,649.2944042074894,10.757186620572057,11.639161825016116,3.076223170690271,3.042693413825589
54,1469.918054,3.507815,1,55,2,1,1,1,4,2,22.16346154,n/a,n/a,1440208.0,1443718.0,0.0,0.0,0.0,1441985.0,1440725.0,1442718.0,1440725.0,1441718.0,1442725.0,1443718.0,3510.0,517.0,993.0,993.0,1993.0,-1442725.0,0.0,0.0,0.0,1.0,0.0,0.0,0.0,0.0034615321393236813,-9.944981836274675,0.08307677134374868,-0.6092296565208302,1441966.0,1442042.0,76.0,649.6165037808079,9.972502877643258,10.982970184668492,3.0721152391900315,248.0,3.0668270928726415,1.0,0.10730749631901051,-0.5538451422916632,0.6542295743320262,0.6403834457747355,1442898.0,1442921.0,23.0,77.68121683197812,0.6612976083563897,0.7366560058763152,3.1206533060790855,2.9285301729286113
55,1473.4342,3.5078286,1,56,2,2,2,1,4,2,22.16346154,n/a,n/a,1443724.0,1447233.0,0.0,0.0,0.0,1445500.0,1444241.0,1446234.0,1444241.0,1445234.0,1446241.0,1447234.0,3509.0,517.0,993.0,993.0,1993.0,-1446241.0,0.0,0.0,0.0,1.0,0.0,0.0,0.0,-0.20769192835937367,9.86190506493093,0.079615239204425,0.5399990137343723,1445465.0,1445548.0,83.0,489.11454572577026,10.080115913377758,11.390713654470902,-0.04568836182481141,231.0,-0.05320597516898805,0.0,0.0,0.0,0.0,0.0,0.0,0.0,0.0,0.0,0.0,0.0,0.0,0.0
56,1476.950358,3.5078478,1,57,2,1,2,1,2,1,22.16346154,n/a,n/a,1447241.0,1450750.0,0.0,0.0,0.0,1448634.0,1447757.0,1449750.0,1447757.0,1448350.0,1449757.0,1450750.0,3509.0,516.0,593.0,993.0,1993.0,-1449757.0,0.0,0.0,0.0,1.0,0.0,0.0,0.0,0.4223069209973947,-10.311904243042902,0.6992294921432263,0.1349997534335921,1448620.0,1448690.0,70.0,680.1780979644383,10.749029933545243,12.707922366243372,3.0890772944938965,270.0,3.0748070591234296,1.0,0.7061525564218697,0.9623059347317631,1.3084591486640544,1.4538434985156157,1449272.0,1449292.0,20.0,54.31959057350243,0.29453550278588236,0.3783060316102509,-0.516230670611748,-0.603229852924684
57,1480.466535,3.5078156,1,58,2,1,2,2,5,2,22.16346154,n/a,n/a,1450757.0,1454266.0,0.0,0.0,0.0,1452700.0,1451273.0,1453266.0,1451273.0,1452467.0,1453273.0,1454266.0,3509.0,516.0,1194.0,993.0,1993.0,-1453273.0,0.0,0.0,0.0,1.0,0.0,0.0,0.0,0.3426916817929658,-10.242673600256444,-0.328845553235675,0.3080763603997368,1452683.0,1452763.0,80.0,624.9578217136292,10.60450978020606,12.05237938442282,-3.081495064380068,216.0,-3.0746232900571107,0.0,0.0,0.0,0.0,0.0,0.0,0.0,0.0,0.0,0.0,0.0,0.0,0.0
58,1483.982687,3.5078398,1,59,2,2,2,2,5,1,22.16346154,n/a,n/a,1454273.0,1457782.0,0.0,0.0,0.0,1456366.0,1454789.0,1456783.0,1454790.0,1455982.0,1456789.0,1457783.0,3509.0,517.0,1192.0,994.0,1994.0,-1456789.0,0.0,0.0,0.0,1.0,0.0,0.0,0.0,0.19384579980208289,10.651134392696548,0.14538434985156315,-0.1488458819908829,1456354.0,1456422.0,68.0,500.4162566723664,10.461427060607495,11.500723175799719,0.028128957431440532,372.0,0.05721815093942074,0.0,0.0,0.0,0.0,0.0,0.0,0.0,0.0,0.0,0.0,0.0,0.0,0.0
59,1487.498848,3.507837,1,60,2,2,1,2,4,2,22.16346154,n/a,n/a,1457789.0,1461299.0,0.0,0.0,0.0,1459582.0,1458306.0,1460298.0,1458306.0,1459299.0,1460305.0,1461299.0,3510.0,517.0,993.0,994.0,1992.0,-1460305.0,0.0,0.0,0.0,1.0,0.0,0.0,0.0,0.2596149104492171,10.29459658234629,-0.1107690284583342,-0.8619215026913999,1459568.0,1459652.0,84.0,438.05138738959,10.063055559563242,11.851272007289177,0.07471406386636456,269.0,0.09272250327293542,0.0,0.0,0.0,0.0,0.0,0.0,0.0,0.0,0.0,0.0,0.0,0.0,0.0
60,1491.015173,3.5076453,1,61,2,1,1,2,5,2,22.16346154,n/a,n/a,1461305.0,1464815.0,0.0,0.0,0.0,1463265.0,1461822.0,1463814.0,1461822.0,1463015.0,1463821.0,1464815.0,3510.0,517.0,1193.0,994.0,1992.0,-1463821.0,0.0,0.0,0.0,1.0,0.0,0.0,0.0,0.21115346049869735,-10.259981260953058,-0.30461482826041314,-0.36692240676822757,1463246.0,1463308.0,62.0,607.1073010091118,10.471320097730374,11.758718191631814,3.135642310594749,231.0,3.099778501660221,0.0,0.0,0.0,0.0,0.0,0.0,0.0,0.0,0.0,0.0,0.0,0.0,0.0
61,1494.531152,3.5078271,1,62,2,2,2,1,2,1,22.16346154,n/a,n/a,1464821.0,1468330.0,0.0,0.0,0.0,1466314.0,1465338.0,1467331.0,1465338.0,1465931.0,1467338.0,1468330.0,3509.0,517.0,593.0,992.0,1993.0,-1467338.0,0.0,0.0,0.0,1.0,0.0,0.0,0.0,-0.21115346049869735,10.422673271501232,0.048461449950519736,-0.26653797472786445,1466291.0,1466372.0,81.0,496.9562908078872,10.638491227789022,11.847219033911184,0.02961373597636976,360.0,0.06637380787373877,1.0,-1.8761504195130103,-0.747690942093746,0.4846144995052052,0.6473065100533828,1467418.0,1467454.0,36.0,185.47571992248652,1.1401269589276308,2.028141781769734,-0.14318516037521858,-0.14213842558668308
62,1498.047299,3.6661508,1,63,2,2,2,2,5,1,22.16346154,n/a,n/a,1468337.0,1472005.0,0.0,0.0,0.0,1470587.0,1469014.0,1471005.0,1469014.0,1470204.0,1471012.0,1472006.0,3668.0,677.0,1190.0,994.0,1991.0,-1471012.0,0.0,0.0,0.0,1.0,0.0,0.0,0.0,0.09692289990103947,11.056133652997328,0.4707683709479144,0.782306263486975,1470569.0,1470639.0,70.0,509.3172704932755,10.963637908526028,12.256171327618313,-0.028419383718931428,365.0,0.03078992741159324,1.0,-33.26532385889301,0.2976917639817697,18.726888873736858,0.6369219136354117,1471255.0,1471333.0,78.0,12383.732165852682,38.12771855643737,46.002284380056985,0.4943471980801092,0.753947265190046
63,1501.721785,3.5078406,1,64,2,1,1,1,4,1,22.16346154,n/a,n/a,1472012.0,1475522.0,0.0,0.0,0.0,1473795.0,1472529.0,1474522.0,1472529.0,1473522.0,1474528.0,1475522.0,3510.0,517.0,993.0,994.0,1993.0,-1474528.0,0.0,0.0,0.0,1.0,0.0,0.0,0.0,0.16615354268749735,-10.74113422831894,0.747690942093746,-0.0692306427864579,1473783.0,1473850.0,67.0,581.7471253994152,10.937837418584614,11.93931009728472,3.0668353715996246,261.0,3.051011512746866,1.0,-10.748057292597586,-10.474596253591079,-0.0553845142291671,-0.11769209273697762,1473853.0,1473872.0,19.0,32.92501618823817,0.28046956019152197,0.29012926150208956,0.2240236470379186,0.34061624041830424
64,1505.237963,3.5078261,1,65,2,1,1,1,5,2,22.16346154,n/a,n/a,1475528.0,1479037.0,0.0,0.0,0.0,1477528.0,1476045.0,1478038.0,1476045.0,1477238.0,1478044.0,1479037.0,3509.0,517.0,1193.0,993.0,1993.0,-1478044.0,0.0,0.0,0.0,1.0,0.0,0.0,0.0,-0.20769192835937367,-10.363827225132745,0.6092296565208302,-0.9242290811992143,1477506.0,1477610.0,104.0,633.0998339823894,10.271250160844875,11.361092308924263,2.9917361845928454,268.0,2.98125259469194,1.0,-0.20769192835937367,-10.363827225132745,0.6092296565208302,-0.9242290811992143,1477506.0,1477610.0,104.0,633.0998339823894,10.271250160844875,11.361092308924263,2.9917361845928454,2.98125259469194
65,1508.754226,3.5077178,1,66,2,2,2,2,1,2,22.16346154,n/a,n/a,1479044.0,1482553.0,0.0,0.0,0.0,1480437.0,1479561.0,1481554.0,1479561.0,1479954.0,1481560.0,1482553.0,3509.0,517.0,393.0,993.0,1993.0,-1481560.0,0.0,0.0,0.0,1.0,0.0,0.0,0.0,-0.31846095681770786,9.436136611794208,0.6438449779140591,0.5953835279635394,1480419.0,1480496.0,77.0,473.455830865051,9.754717947624155,11.361965542236375,0.004968021582930269,465.0,0.07135087698409101,1.0,-1.8415350981197813,-1.0523057703541592,1.1907670559270749,1.4919203520481683,1481777.0,1481797.0,20.0,76.71110668672385,0.84473441954852,0.8350403722650743,-0.3645260024069353,-2.772633107383935
66,1512.270284,3.5078388,1,67,2,2,2,2,1,2,22.16346154,n/a,n/a,1482560.0,1486070.0,0.0,0.0,0.0,1483920.0,1483077.0,1485070.0,1483077.0,1483470.0,1485077.0,1486070.0,3510.0,517.0,393.0,993.0,1993.0,-1485077.0,0.0,0.0,0.0,1.0,0.0,0.0,0.0,-0.16961507482682103,9.86190506493093,0.6680757028893171,0.26307644258854074,1483898.0,1483967.0,69.0,476.1969737014254,10.039692261977432,11.519681480407481,0.04035075705527094,428.0,0.09147603588508622,1.0,-0.15576894626953025,-0.17999967124479208,0.4361530495546855,0.373845471046871,1485059.0,1485078.0,19.0,29.15597467620396,0.0668532899140666,0.11789553643720431,1.9416876156075682,0.8685393952858836
67,1515.786461,3.5078175,1,68,2,1,1,2,1,2,22.16346154,n/a,n/a,1486076.0,1489586.0,0.0,0.0,0.0,1487410.0,1486593.0,1488586.0,1486593.0,1486986.0,1488593.0,1489586.0,3510.0,517.0,393.0,993.0,1993.0,-1488593.0,0.0,0.0,0.0,1.0,0.0,0.0,0.0,-0.048461449950519736,-10.398442546525974,0.4569222423906236,0.8930752919453052,1487396.0,1487460.0,64.0,583.2912761376789,10.359166867181216,11.476948239290072,-3.0994771034333537,410.0,-3.089088852635281,1.0,-10.408827142943945,-10.194212150305924,0.8896137598059854,0.782306263486975,1487462.0,1487485.0,23.0,32.7272970039017,0.23994685626461598,0.2699551246022604,0.4636476090008061,-0.7127987096669482
68,1519.302706,3.5077337,1,69,2,1,2,1,1,1,22.16346154,n/a,n/a,1489593.0,1493102.0,0.0,0.0,0.0,1491302.0,1490109.0,1492103.0,1490109.0,1490503.0,1492109.0,1493102.0,3509.0,516.0,394.0,993.0,1994.0,-1492109.0,0.0,0.0,0.0,0.0,0.0,0.0,1.0,0.21807652477734077,-10.685749714089777,0.33576861751432235,1.3742282593111887,1491274.0,1491350.0,76.0,540.7239941867175,10.953165071112911,12.285311129072833,-3.0466409472470373,771.0,-3.0493256659129946,0.0,0.0,0.0,0.0,0.0,0.0,0.0,0.0,0.0,0.0,0.0,0.0,0.0
69,1522.818786,3.5077894,1,70,2,1,1,1,4,2,22.16346154,n/a,n/a,1493109.0,1496619.0,0.0,0.0,0.0,1494792.0,1493626.0,1495618.0,1493626.0,1494619.0,1495625.0,1496619.0,3510.0,517.0,993.0,994.0,1992.0,-1495625.0,0.0,0.0,0.0,1.0,0.0,0.0,0.0,0.38423006746484206,-9.57805942950645,0.28038410328515523,-0.12807668915494866,1494775.0,1494847.0,72.0,646.7666417284273,9.970659568976634,11.48750055478733,3.100614910352204,156.0,3.088835378711898,1.0,0.38423006746484206,-9.57805942950645,0.28038410328515523,-0.12807668915494866,1494775.0,1494847.0,72.0,646.7666417284273,9.970659568976634,11.48750055478733,3.100614910352204,3.088835378711898
70,1526.351582,3.5078226,1,71,2,2,2,1,5,2,22.16346154,n/a,n/a,1496644.0,1500151.0,0.0,0.0,0.0,1498550.0,1497159.0,1499151.0,1497159.0,1498350.0,1499158.0,1500151.0,3507.0,515.0,1191.0,993.0,1992.0,-1499158.0,0.0,0.0,0.0,1.0,0.0,0.0,0.0,0.4119223245794236,10.298058114485611,-0.06576911064713421,1.0349981096575447,1498532.0,1498602.0,70.0,480.8225418385205,9.947229228773272,11.365644407939353,-0.11088779529939202,182.0,-0.1169130254796349,1.0,1.121536413140617,0.46730683880859075,0.8411523098554617,0.782306263486975,1500012.0,1500035.0,23.0,65.44442314393802,0.6568707582956227,0.6981061623137372,3.0518869645727364,0.3703778100387904
71,1529.867733,3.6161717,1,72,2,2,2,2,5,1,22.16346154,n/a,n/a,1500158.0,1503775.0,0.0,0.0,0.0,1502201.0,1500785.0,1502776.0,1500785.0,1501974.0,1502782.0,1503775.0,3617.0,627.0,1189.0,993.0,1991.0,-1502782.0,0.0,0.0,0.0,1.0,0.0,0.0,0.0,0.3530762782109368,10.872672449613209,0.09692289990103947,1.201151652345044,1502172.0,1502268.0,96.0,443.2747618483271,10.577392152468649,11.452130021060805,-0.10458573813550856,198.0,-0.09960850030620655,0.0,0.0,0.0,0.0,0.0,0.0,0.0,0.0,0.0,0.0,0.0,0.0,0.0
72,1533.492221,3.6911409,1,73,2,1,1,1,4,2,22.16346154,n/a,n/a,1503782.0,1507475.0,0.0,0.0,0.0,1505642.0,1504482.0,1506475.0,1504482.0,1505475.0,1506482.0,1507475.0,3693.0,700.0,993.0,993.0,1993.0,-1506482.0,0.0,0.0,0.0,1.0,0.0,0.0,0.0,0.048461449950519736,-10.097289250404884,0.2423072497526026,-0.0034615321393236813,1505630.0,1505706.0,76.0,651.361316096357,10.148726992481118,11.371424432736568,3.117373575647556,155.0,3.105969593973631,1.0,0.33923014965364207,0.32192248895702763,1.2357669737382728,1.2149977809023367,1506746.0,1506773.0,27.0,40.17796972536696,0.027035430269286197,0.1839829568823484,2.265534602991628,-0.8519663271732721
73,1537.208345,3.5078407,1,74,2,2,1,1,1,2,22.16346154,n/a,n/a,1507500.0,1511008.0,0.0,0.0,0.0,1508957.0,1508016.0,1510008.0,1508016.0,1508407.0,1510015.0,1511008.0,3508.0,516.0,391.0,993.0,1992.0,-1510015.0,0.0,0.0,0.0,1.0,0.0,0.0,0.0,0.1488458819908829,10.64767286055722,-0.05192298208984342,0.4084607924401,1508936.0,1509005.0,69.0,500.8932560306089,10.508916268851074,12.153021800848391,-0.04382289789254163,529.0,-0.04701409016980384,0.0,0.0,0.0,0.0,0.0,0.0,0.0,0.0,0.0,0.0,0.0,0.0,0.0
74,1540.72452,3.5078199,1,75,2,2,2,2,1,2,22.16346154,n/a,n/a,1511015.0,1514524.0,0.0,0.0,0.0,1512598.0,1511531.0,1513524.0,1511531.0,1511924.0,1513531.0,1514524.0,3509.0,516.0,393.0,993.0,1993.0,-1513531.0,0.0,0.0,0.0,0.0,0.0,0.0,1.0,0.2423072497526026,10.533442299959566,0.2769225711458316,1.0799980274687426,1512579.0,1512648.0,69.0,473.31978099276546,10.322421751224203,11.46926321870828,-0.07787782945215267,655.0,-0.08279033712114942,0.0,0.0,0.0,0.0,0.0,0.0,0.0,0.0,0.0,0.0,0.0,0.0,0.0
75,1544.240644,3.5078735,1,76,2,2,2,1,3,2,22.16346154,n/a,n/a,1514531.0,1518040.0,0.0,0.0,0.0,1516307.0,1515047.0,1517040.0,1515047.0,1515840.0,1517047.0,1518040.0,3509.0,516.0,793.0,993.0,1993.0,-1517047.0,0.0,0.0,0.0,1.0,0.0,0.0,0.0,-0.048461449950519736,10.069596993290302,0.1765381391054684,0.6161527207994736,1516286.0,1516361.0,75.0,457.74499955485896,10.127604239960943,11.376817631652953,-0.04342120241689713,446.0,-0.06820753974854242,0.0,0.0,0.0,0.0,0.0,0.0,0.0,0.0,0.0,0.0,0.0,0.0,0.0
76,1547.76515,3.507843,1,77,2,2,2,1,2,2,22.16346154,n/a,n/a,1518055.0,1521565.0,0.0,0.0,0.0,1519799.0,1518572.0,1520565.0,1518572.0,1519165.0,1520571.0,1521565.0,3510.0,517.0,593.0,994.0,1993.0,-1520571.0,0.0,0.0,0.0,0.0,0.0,0.0,1.0,0.19730733194140657,10.339596500157487,0.10038443204036315,0.827306181298171,1519773.0,1519862.0,89.0,457.04351104159196,10.16830589632596,11.513405581838946,-0.0715500066190015,608.0,-0.06980802284503151,0.0,0.0,0.0,0.0,0.0,0.0,0.0,0.0,0.0,0.0,0.0,0.0,0.0
77,1551.281317,3.507815,1,78,2,2,1,1,4,2,22.16346154,n/a,n/a,1521571.0,1525081.0,0.0,0.0,0.0,1523348.0,1522088.0,1524080.0,1522088.0,1523081.0,1524088.0,1525081.0,3510.0,517.0,993.0,993.0,1992.0,-1524088.0,0.0,0.0,0.0,1.0,0.0,0.0,0.0,0.2388457176132789,10.564596089213476,0.08999983562239604,-0.21461499263802103,1523324.0,1523392.0,68.0,496.1744063712144,10.330242539756641,11.487800953453883,0.0294919494194168,243.0,0.06815161437761592,0.0,0.0,0.0,0.0,0.0,0.0,0.0,0.0,0.0,0.0,0.0,0.0,0.0
78,1554.797479,3.5078517,1,79,2,2,2,1,2,1,22.16346154,n/a,n/a,1525087.0,1528597.0,0.0,0.0,0.0,1526613.0,1525604.0,1527597.0,1525604.0,1526197.0,1527604.0,1528597.0,3510.0,517.0,593.0,993.0,1993.0,-1527604.0,0.0,0.0,0.0,1.0,0.0,0.0,0.0,-0.044999917811196055,10.346519564436134,0.2388457176132789,0.4049992603007802,1526595.0,1526662.0,67.0,509.36856768846644,10.39284774013713,11.86688544694048,-0.015987978042382955,398.0,0.04960879631885113,1.0,-33.26532385889301,-0.1730766069661447,18.726888873736858,0.7165371528398408,1527222.0,1527288.0,66.0,11988.989899118755,37.675848992333,44.0077764611251,0.49841548670609764,0.7199991137435952
79,1558.313693,3.5078093,1,80,2,2,2,2,5,2,22.16346154,n/a,n/a,1528604.0,1532113.0,0.0,0.0,0.0,1530553.0,1529120.0,1531113.0,1529120.0,1530313.0,1531120.0,1532114.0,3509.0,516.0,1193.0,994.0,1993.0,-1531120.0,0.0,0.0,0.0,1.0,0.0,0.0,0.0,0.2699995068671842,9.920751111299412,0.01384612855729079,1.2357669737382728,1530539.0,1530608.0,69.0,436.989395120356,9.727800218052332,10.854484468820779,-0.12594390612836165,226.0,-0.12823140406901845,0.0,0.0,0.0,0.0,0.0,0.0,0.0,0.0,0.0,0.0,0.0,0.0,0.0
80,1561.829832,3.5744599,1,81,2,1,2,1,2,1,22.16346154,n/a,n/a,1532120.0,1535696.0,0.0,0.0,0.0,1533720.0,1532703.0,1534696.0,1532703.0,1533296.0,1534703.0,1535696.0,3576.0,583.0,593.0,993.0,1993.0,-1534703.0,0.0,0.0,0.0,1.0,0.0,0.0,0.0,-0.0553845142291671,-10.27036585737103,0.29076869970312236,0.20423039622005,1533703.0,1533775.0,72.0,601.7816628626591,10.215347900032874,11.248599548205883,3.133121151744901,407.0,3.101577068366772,0.0,0.0,0.0,0.0,0.0,0.0,0.0,0.0,0.0,0.0,0.0,0.0,0.0
81,1565.412641,3.5078228,1,82,2,1,1,1,5,2,22.16346154,n/a,n/a,1535702.0,1539212.0,0.0,0.0,0.0,1537646.0,1536219.0,1538212.0,1536219.0,1537412.0,1538219.0,1539212.0,3510.0,517.0,1193.0,993.0,1993.0,-1538219.0,0.0,0.0,0.0,1.0,0.0,0.0,0.0,0.3461532139322894,-9.179983233484318,-0.062307578507810525,-0.43269151741536177,1537629.0,1537692.0,63.0,598.1590859839009,9.533334142733054,10.780938930430995,3.102731414156147,217.0,3.072183891743141,1.0,-2.1392268621015473,-2.1011500085689985,0.6923064278645789,0.48115296736588153,1538380.0,1538401.0,21.0,26.912036515803354,0.21455915421047433,0.23924671805110828,1.3923858274438714,-1.0229327952930707
82,1568.928792,3.5078326,1,83,2,2,2,1,4,1,22.16346154,n/a,n/a,1539219.0,1542728.0,0.0,0.0,0.0,1541045.0,1539735.0,1541728.0,1539735.0,1540728.0,1541735.0,1542728.0,3509.0,516.0,993.0,993.0,1993.0,-1541735.0,0.0,0.0,0.0,1.0,0.0,0.0,0.0,0.12807668915494866,9.501905722441345,0.28730716756379865,-0.15576894626953025,1541017.0,1541093.0,76.0,379.33445625275084,9.384294709136782,10.344400041948727,0.04723220147371424,289.0,0.07032997129536121,1.0,15.109587788144434,15.27574133083193,1.0003827882643157,1.1249979452799406,1541481.0,1541503.0,22.0,23.738080426701096,0.2076919283593729,0.23622262281170037,-0.6435011087932919,-2.5332676449712084
83,1572.444987,3.5078101,1,84,2,1,2,1,2,2,22.16346154,n/a,n/a,1542735.0,1546244.0,0.0,0.0,0.0,1544201.0,1543251.0,1545244.0,1543251.0,1543845.0,1545251.0,1546244.0,3509.0,516.0,594.0,993.0,1993.0,-1545251.0,0.0,0.0,0.0,1.0,0.0,0.0,0.0,0.020769192835938154,-10.78613414613014,0.26653797472786445,0.04153838567187631,1544175.0,1544256.0,81.0,736.1606399827973,10.809245329477516,12.532538658708631,3.1207756739128314,330.0,3.104296523370126,1.0,-2.37807257971483,-1.3499975343359287,-0.22153805691666445,-0.21461499263802103,1545900.0,1545920.0,20.0,106.21164218002647,1.0280983550953848,1.0026798540312327,-0.006733904948116814,0.10722604897368868
84,1575.961128,3.5078244,1,85,2,2,2,2,4,2,22.16346154,n/a,n/a,1546251.0,1549760.0,0.0,0.0,0.0,1548017.0,1546768.0,1548760.0,1546768.0,1547761.0,1548767.0,1549760.0,3509.0,517.0,993.0,993.0,1992.0,-1548767.0,0.0,0.0,0.0,1.0,0.0,0.0,0.0,-0.1730766069661447,9.463828868908797,0.5365374815950487,0.702691024282546,1548002.0,1548067.0,65.0,514.68720159591,9.638337727569834,10.829967988108464,-0.017239671194529526,241.0,-0.03260756214632126,0.0,0.0,0.0,0.0,0.0,0.0,0.0,0.0,0.0,0.0,0.0,0.0,0.0
85,1579.477314,3.5077901,1,86,2,2,1,1,2,2,22.16346154,n/a,n/a,1549767.0,1553276.0,0.0,0.0,0.0,1551267.0,1550284.0,1552277.0,1550284.0,1550876.0,1552283.0,1553276.0,3509.0,517.0,592.0,993.0,1993.0,-1552283.0,0.0,0.0,0.0,1.0,0.0,0.0,0.0,-0.10384596417968683,10.751518824736907,0.4949990959231723,0.15230741413020657,1551247.0,1551325.0,78.0,507.6913804340258,10.860772637764788,12.298543589178399,0.031558396699100974,371.0,0.057731097436423476,1.0,-0.10384596417968683,10.751518824736907,0.4949990959231723,0.15230741413020657,1551247.0,1551325.0,78.0,507.6913804340258,10.860772637764788,12.298543589178399,0.031558396699100974,0.057731097436423476
86,1582.993459,3.507818,1,87,2,2,2,2,1,1,22.16346154,n/a,n/a,1553283.0,1556792.0,0.0,0.0,0.0,1554600.0,1553800.0,1555793.0,1553800.0,1554193.0,1555799.0,1556793.0,3509.0,517.0,393.0,994.0,1993.0,-1555799.0,0.0,0.0,0.0,1.0,0.0,0.0,0.0,-0.22499958905598813,10.671903585532482,0.5088452244804671,0.29076869970312236,1554568.0,1554645.0,77.0,426.1689051102043,10.899085106880083,11.722177433163502,0.020010035369668618,375.0,0.0449003370465479,1.0,-33.26532385889301,-0.6819218314466118,18.726888873736858,0.5192298208984342,1555262.0,1555333.0,71.0,11015.96804587691,37.32555338995803,42.21027334512603,0.5095755974279444,0.6902128025652184
87,1586.509611,3.50785,1,88,2,1,2,2,5,2,22.16346154,n/a,n/a,1556799.0,1560309.0,0.0,0.0,0.0,1558809.0,1557316.0,1559309.0,1557316.0,1558509.0,1559316.0,1560309.0,3510.0,517.0,1193.0,993.0,1993.0,-1559316.0,0.0,0.0,0.0,1.0,0.0,0.0,0.0,0.12807668915494866,-9.64036700801426,0.6819218314466118,1.131921009558586,1558790.0,1558856.0,66.0,682.5465441535574,9.778803174472136,11.266463440796022,-3.0955585792462625,281.0,-3.087491652376688,1.0,-33.26532385889301,1.8623042909557157,18.726888873736858,1.5888432519492077,1559480.0,1559573.0,93.0,11150.090853406009,39.08532802943477,51.03803495134542,0.45390418541234545,0.5343478305938965
88,1590.034099,3.507854,1,89,2,2,2,2,1,2,22.16346154,n/a,n/a,1560326.0,1563833.0,0.0,0.0,0.0,1561625.0,1560841.0,1562834.0,1560842.0,1561232.0,1562840.0,1563833.0,3507.0,516.0,390.0,993.0,1993.0,-1562840.0,0.0,0.0,0.0,1.0,0.0,0.0,0.0,0.05884604636849078,11.260364049217374,0.6092296565208302,0.3807685353255184,1561607.0,1561686.0,79.0,421.7868192034472,11.203847555730372,12.845176762998818,0.020392722730918834,375.0,0.07282424420732034,0.0,0.0,0.0,0.0,0.0,0.0,0.0,0.0,0.0,0.0,0.0,0.0,0.0
89,1593.550269,3.5744691,1,90,2,2,2,2,4,1,22.16346154,n/a,n/a,1563840.0,1567416.0,0.0,0.0,0.0,1565749.0,1564417.0,1566416.0,1564417.0,1565416.0,1566423.0,1567417.0,3576.0,577.0,999.0,994.0,1999.0,-1566423.0,0.0,0.0,0.0,1.0,0.0,0.0,0.0,0.20423039622005,11.4611329132981,0.40153772816145655,0.5953835279635394,1565734.0,1565807.0,73.0,497.33388924251204,11.258571422391876,12.56959012645391,-0.017218470380421683,318.0,0.03498159051503798,0.0,0.0,0.0,0.0,0.0,0.0,0.0,0.0,0.0,0.0,0.0,0.0,0.0
90,1597.133112,3.5077833,1,91,2,2,2,2,1,2,22.16346154,n/a,n/a,1567423.0,1570932.0,0.0,0.0,0.0,1568783.0,1567939.0,1569932.0,1567939.0,1568333.0,1569939.0,1570932.0,3509.0,516.0,394.0,993.0,1993.0,-1569939.0,0.0,0.0,0.0,1.0,0.0,0.0,0.0,-0.05192298208984342,10.574980685631443,0.578075867266925,0.2699995068671842,1568767.0,1568845.0,78.0,462.7835307931728,10.631368331821887,11.93103411232177,0.028982110654701097,434.0,0.05776768074484834,0.0,0.0,0.0,0.0,0.0,0.0,0.0,0.0,0.0,0.0,0.0,0.0,0.0
91,1600.649259,3.5078206,1,92,2,2,1,1,2,1,22.16346154,n/a,n/a,1570939.0,1574448.0,0.0,0.0,0.0,1572349.0,1571456.0,1573448.0,1571456.0,1572049.0,1573455.0,1574448.0,3509.0,517.0,593.0,993.0,1992.0,-1573455.0,0.0,0.0,0.0,1.0,0.0,0.0,0.0,-0.21115346049869735,9.7061361186614,0.623075785078121,0.578075867266925,1572332.0,1572405.0,73.0,441.0982956597763,9.917391672688966,11.014574054270227,0.004537490674223409,283.0,0.04338264066499723,1.0,-0.31499942467838415,-0.31499942467838415,1.0799980274687426,0.882690695527338,1573084.0,1573108.0,24.0,41.139839829034045,0.1973073319414046,0.28680626844526264,1.5707963267948966,1.9804424354197283
92,1604.173771,3.5077948,1,93,2,1,1,2,4,2,22.16346154,n/a,n/a,1574465.0,1577972.0,0.0,0.0,0.0,1576221.0,1574982.0,1576973.0,1574982.0,1575972.0,1576980.0,1577972.0,3507.0,517.0,990.0,992.0,1991.0,-1576980.0,0.0,0.0,0.0,1.0,0.0,0.0,0.0,0.8099985206015565,-9.28036766552468,0.21807652477734077,-0.17999967124479208,1576206.0,1576272.0,66.0,603.2215675633452,10.098215408078756,11.56234331616806,3.102161986688392,234.0,3.08557934360021,1.0,0.782306263486975,0.3946146638828092,0.079615239204425,0.26307644258854074,1577067.0,1577088.0,21.0,49.40352760774884,0.4289088359439388,0.48100352550472675,-2.699602307753498,0.5959864658434385
93,1607.689898,3.507821,1,94,2,1,1,2,2,2,22.16346154,n/a,n/a,1577980.0,1581489.0,0.0,0.0,0.0,1579396.0,1578496.0,1580489.0,1578496.0,1579090.0,1580496.0,1581489.0,3509.0,516.0,594.0,993.0,1993.0,-1580496.0,0.0,0.0,0.0,1.0,0.0,0.0,0.0,-0.10038443204036315,-10.730749631900972,0.5503836101523394,0.5711528029882775,1579379.0,1579448.0,69.0,592.532903028944,10.630385488860625,11.932453590197554,-3.139638895085836,289.0,-3.1061938038904087,1.0,-0.10038443204036315,-10.730749631900972,0.5503836101523394,0.5711528029882775,1579379.0,1579448.0,69.0,592.532903028944,10.630385488860625,11.932453590197554,-3.139638895085836,-3.1061938038904087
94,1611.206092,3.5078135,1,95,2,1,2,1,2,1,22.16346154,n/a,n/a,1581496.0,1585005.0,0.0,0.0,0.0,1582955.0,1582012.0,1584005.0,1582012.0,1582605.0,1584012.0,1585005.0,3509.0,516.0,593.0,993.0,1993.0,-1584012.0,0.0,0.0,0.0,1.0,0.0,0.0,0.0,0.15576894626953025,-10.716903503343682,0.6057681243815065,0.3115378925390605,1582938.0,1583010.0,72.0,602.3961079731143,10.87665286868659,12.43045252295601,3.1145378111848845,333.0,3.0942347248192497,0.0,0.0,0.0,0.0,0.0,0.0,0.0,0.0,0.0,0.0,0.0,0.0,0.0
95,1614.722252,3.5077912,1,96,2,1,2,2,2,1,22.16346154,n/a,n/a,1585012.0,1588521.0,0.0,0.0,0.0,1586428.0,1585528.0,1587522.0,1585528.0,1586121.0,1587528.0,1588521.0,3509.0,516.0,593.0,993.0,1994.0,-1587528.0,0.0,0.0,0.0,1.0,0.0,0.0,0.0,-0.38423006746484206,-10.308442710903577,0.5573066744309868,0.782306263486975,1586413.0,1586474.0,61.0,598.8306090878399,9.926762886624452,11.458031123866526,-3.118924754546801,292.0,-3.1059366713152214,1.0,-10.277288921649673,-9.931135707717383,0.6334603814960881,0.7165371528398408,1586491.0,1586511.0,20.0,32.88961565372302,0.35598286117811273,0.35234588607073136,-0.23554498072087193,-0.1877619465136022
96,1618.238387,3.6911844,1,97,2,1,1,1,3,2,22.16346154,n/a,n/a,1588528.0,1592220.0,0.0,0.0,0.0,1590287.0,1589228.0,1591221.0,1589228.0,1590020.0,1591228.0,1592220.0,3692.0,700.0,792.0,992.0,1993.0,-1591228.0,0.0,0.0,0.0,1.0,0.0,0.0,0.0,-0.11769209273697762,-9.681905393686137,0.6126911886601539,0.35653781035025656,1590262.0,1590325.0,63.0,589.0419061375699,9.567642897771236,10.496141750782348,3.114816571730639,242.0,3.088801590872512,1.0,-0.16961507482682103,-0.8549984384127565,0.5711528029882775,0.5330759494557249,1591651.0,1591675.0,24.0,61.84916221694018,0.6864402390997414,0.6819569729994026,3.0860941483440754,2.821447234251224
97,1621.937905,3.5078598,1,98,2,2,2,1,5,1,22.16346154,n/a,n/a,1592228.0,1595737.0,0.0,0.0,0.0,1594271.0,1592744.0,1594737.0,1592744.0,1593936.0,1594744.0,1595737.0,3509.0,516.0,1192.0,993.0,1993.0,-1594744.0,0.0,0.0,0.0,1.0,0.0,0.0,0.0,-0.43269151741536177,10.917672367424412,0.6749987671679644,1.0799980274687426,1594249.0,1594346.0,97.0,427.16586031679725,11.357587099341092,12.067922275533897,-0.03566647879884078,313.0,-0.04964326817733418,1.0,10.92805696384238,12.530746344348877,0.9865366597070249,1.6096124447851459,1594430.0,1594471.0,41.0,176.81036461659784,1.719545487720235,2.3655032748968545,-0.3707870570014913,-0.3231387996871442
98,1625.462361,3.5078178,1,99,2,1,2,1,5,2,22.16346154,n/a,n/a,1595754.0,1599261.0,0.0,0.0,0.0,1597753.0,1596270.0,1598261.0,1596270.0,1597460.0,1598268.0,1599261.0,3507.0,516.0,1190.0,993.0,1991.0,-1598268.0,0.0,0.0,0.0,1.0,0.0,0.0,0.0,0.01384612855729079,-10.097289250404884,0.28730716756379865,1.2288439094596275,1597740.0,1597801.0,61.0,591.5285346881545,10.154878142451556,11.138429992537292,-3.048741614755778,280.0,-3.0457275574982456,1.0,0.9726905311497341,1.0176904489609302,1.0003827882643157,0.8688445669700473,1598464.0,1598483.0,19.0,31.17514941360077,0.1390226465877928,0.2013945458150442,1.2411719193741608,1.1455913078152788
99,1628.978511,3.5078253,1,100,2,1,2,1,5,2,22.16346154,n/a,n/a,1599268.0,1602777.0,0.0,0.0,0.0,1601211.0,1599785.0,1601778.0,1599785.0,1600977.0,1601784.0,1602778.0,3509.0,517.0,1192.0,994.0,1993.0,-1601784.0,0.0,0.0,0.0,1.0,0.0,0.0,0.0,0.1488458819908829,-10.24959666453509,0.5399990137343723,1.2392285058775965,1601188.0,1601255.0,67.0,715.0021595659658,10.421925411174485,11.841472417283455,-3.0744500565776955,211.0,-3.073721672964981,1.0,1.734227601800771,0.9692289990104104,0.4396145816940092,0.5746143351276013,1602065.0,1602090.0,25.0,88.28603621690873,0.7768190237747363,0.7833241494572409,-2.9669204545815546,2.9051882712241954
100,1677.78831,3.5160201,2,1,2,1,1,2,4,2,22.16346154,n/a,n/a,1648079.0,1651595.0,0.0,0.0,0.0,1649845.0,1648602.0,1650595.0,1648603.0,1649595.0,1650602.0,1651596.0,3516.0,524.0,992.0,994.0,1993.0,-1650602.0,0.0,0.0,0.0,1.0,0.0,0.0,0.0,0.6715372350286407,-9.803059018562438,-0.044999917811196055,-0.5815373994062447,1649827.0,1649878.0,51.0,589.0376682359694,10.488328710757525,12.86612195974526,3.090414645781992,232.0,3.076438308511515,1.0,-9.789212890005144,-10.457288592894464,-0.5988450601028592,-0.6299988493567683,1649880.0,1649904.0,24.0,119.42285880664011,0.6688016921150374,0.8852458162351726,3.094994286577468,2.9487982882628874
101,1681.31267,3.5078686,2,2,2,1,2,1,4,2,22.16346154,n/a,n/a,1651602.0,1655112.0,0.0,0.0,0.0,1653368.0,1652119.0,1654111.0,1652119.0,1653112.0,1654118.0,1655112.0,3510.0,517.0,993.0,994.0,1992.0,-1654118.0,0.0,0.0,0.0,1.0,0.0,0.0,0.0,0.3773070031861947,-10.024597075479102,0.07615370706510526,0.5988450601028592,1653345.0,1653422.0,77.0,574.8008198181158,10.41502831068136,11.724511865569193,-3.091385299349484,233.0,-3.0768901959309938,0.0,0.0,0.0,0.0,0.0,0.0,0.0,0.0,0.0,0.0,0.0,0.0,0.0
102,1684.828862,3.5078006,2,3,2,2,2,2,4,2,22.16346154,n/a,n/a,1655118.0,1658627.0,0.0,0.0,0.0,1656844.0,1655635.0,1657628.0,1655635.0,1656628.0,1657634.0,1658627.0,3509.0,517.0,993.0,993.0,1993.0,-1657634.0,0.0,0.0,0.0,1.0,0.0,0.0,0.0,0.5365374815950487,10.616519071303319,0.4569222423906236,0.17999967124479208,1656828.0,1656900.0,72.0,438.1114088439621,10.083784753715625,11.688174791912848,0.02746561906437174,200.0,0.05214722327230959,1.0,0.5365374815950487,10.616519071303319,0.4569222423906236,0.17999967124479208,1656828.0,1656900.0,72.0,438.1114088439621,10.083784753715625,11.688174791912848,0.02746561906437174,0.05214722327230959
103,1688.361678,3.5078254,2,4,2,2,1,2,5,1,22.16346154,n/a,n/a,1658651.0,1662160.0,0.0,0.0,0.0,1660617.0,1659168.0,1661161.0,1659168.0,1660360.0,1661167.0,1662161.0,3509.0,517.0,1192.0,994.0,1993.0,-1661167.0,0.0,0.0,0.0,1.0,0.0,0.0,0.0,0.3530762782109368,9.533059511695255,0.010384596417967108,-1.4676896270729065,1660603.0,1660671.0,68.0,394.2003107974981,9.298214644607928,11.240637425346039,0.1596404400819989,243.0,0.17269207422584174,0.0,0.0,0.0,0.0,0.0,0.0,0.0,0.0,0.0,0.0,0.0,0.0,0.0
104,1691.877837,3.5161534,2,5,2,2,2,1,3,1,22.16346154,n/a,n/a,1662167.0,1665685.0,0.0,0.0,0.0,1663885.0,1662692.0,1664685.0,1662693.0,1663486.0,1664692.0,1665686.0,3518.0,526.0,793.0,994.0,1993.0,-1664692.0,0.0,0.0,0.0,1.0,0.0,0.0,0.0,0.11423056059765394,10.419211739361913,0.1107690284583342,0.4119223245794236,1663871.0,1663943.0,72.0,467.5777711698491,10.309380699268516,11.852209717203378,-0.029215735765554467,385.0,-0.048208233431018044,1.0,0.6334603814960881,0.09346136776171972,0.5849989315455684,0.5019221602018197,1665657.0,1665678.0,21.0,65.01836974391617,0.5463521618617355,0.5693141826178602,2.9889433251945285,0.3409789534963494
105,1695.402323,3.5078835,2,6,2,2,2,1,4,1,22.16346154,n/a,n/a,1665691.0,1669201.0,0.0,0.0,0.0,1667451.0,1666208.0,1668202.0,1666208.0,1667201.0,1668208.0,1669201.0,3510.0,517.0,993.0,993.0,1994.0,-1668208.0,0.0,0.0,0.0,1.0,0.0,0.0,0.0,0.15923047840885393,9.903443450602797,0.4119223245794236,0.2423072497526026,1667433.0,1667505.0,72.0,466.54161252717364,9.74568908395303,10.86948100181705,0.017404991823201252,232.0,0.0442808855177215,0.0,0.0,0.0,0.0,0.0,0.0,0.0,0.0,0.0,0.0,0.0,0.0,0.0
106,1698.918488,3.507898,2,7,2,2,2,2,1,2,22.16346154,n/a,n/a,1669207.0,1672717.0,0.0,0.0,0.0,1670584.0,1669724.0,1671717.0,1669724.0,1670118.0,1671724.0,1672718.0,3510.0,517.0,394.0,994.0,1993.0,-1671724.0,0.0,0.0,0.0,1.0,0.0,0.0,0.0,0.0553845142291671,9.446521208212182,0.2284611211953118,-0.024230724975261835,1670566.0,1670645.0,79.0,507.69433059489114,9.39453572957149,10.81745242614066,0.02690099152561971,448.0,0.050901203732914076,1.0,0.5330759494557249,0.30461482826041314,0.6957679600039025,0.8619215026913999,1671853.0,1671893.0,40.0,28.09793867029714,0.2824915638482412,0.3438087402527617,-2.5127963671743663,2.5787244207416853
107,1702.434714,3.507835,2,8,2,1,1,2,3,2,22.16346154,n/a,n/a,1672724.0,1676234.0,0.0,0.0,0.0,1674284.0,1673240.0,1675233.0,1673240.0,1674034.0,1675240.0,1676234.0,3510.0,516.0,794.0,994.0,1993.0,-1675240.0,0.0,0.0,0.0,1.0,0.0,0.0,0.0,0.2423072497526026,-9.363444436868429,0.12807668915494866,-0.2526918461705697,1674266.0,1674332.0,66.0,587.5788660003068,9.613295488151643,10.757737976569173,3.101973756333687,232.0,3.0707436940451833,0.0,0.0,0.0,0.0,0.0,0.0,0.0,0.0,0.0,0.0,0.0,0.0,0.0
108,1705.950858,3.5078547,2,9,2,1,2,2,3,2,22.16346154,n/a,n/a,1676240.0,1679749.0,0.0,0.0,0.0,1677833.0,1676757.0,1678749.0,1676757.0,1677550.0,1678756.0,1679749.0,3509.0,517.0,793.0,993.0,1992.0,-1678756.0,0.0,0.0,0.0,1.0,0.0,0.0,0.0,0.747690942093746,-9.785751357865824,0.024230724975261835,0.3011532961210934,1677816.0,1677885.0,69.0,707.3461627364402,10.537081797015128,12.31781481770368,-3.115308862326806,266.0,3.1042085042408627,0.0,0.0,0.0,0.0,0.0,0.0,0.0,0.0,0.0,0.0,0.0,0.0,0.0
109,1709.467037,3.5078313,2,10,2,1,1,1,3,1,22.16346154,n/a,n/a,1679756.0,1683265.0,0.0,0.0,0.0,1681323.0,1680273.0,1682266.0,1680273.0,1681065.0,1682272.0,1683265.0,3509.0,517.0,792.0,993.0,1993.0,-1682272.0,0.0,0.0,0.0,1.0,0.0,0.0,0.0,0.1869227355234355,-9.768443697169209,0.07615370706510526,-0.19384579980208289,1681301.0,1681378.0,77.0,630.0252646465364,9.959027088169407,11.015651517028655,3.1144782988717683,236.0,3.0960124174182244,1.0,0.1869227355234355,-9.768443697169209,0.07615370706510526,-0.19384579980208289,1681301.0,1681378.0,77.0,630.0252646465364,9.959027088169407,11.015651517028655,3.1144782988717683,3.0960124174182244
110,1712.983198,3.5078519,2,11,2,1,1,1,2,2,22.16346154,n/a,n/a,1683272.0,1686782.0,0.0,0.0,0.0,1684749.0,1683789.0,1685782.0,1683789.0,1684382.0,1685789.0,1686782.0,3510.0,517.0,593.0,993.0,1993.0,-1685789.0,0.0,0.0,0.0,1.0,0.0,0.0,0.0,-0.010384596417967108,-9.25613694054942,0.11769209273697762,-0.2526918461705697,1684726.0,1684776.0,50.0,594.2322044448617,9.25316814238307,10.383011492223028,3.101554159642616,344.0,3.0755345467630626,1.0,-11.658440245239508,-33.26532385889301,0.0553845142291671,18.726888873736858,1685364.0,1685436.0,72.0,10875.131942123237,28.556654120206087,39.68455295542227,-2.4289431577513674,-2.469617070489748
111,1716.499367,3.5244953,2,12,2,2,1,2,3,2,22.16346154,n/a,n/a,1686788.0,1690315.0,0.0,0.0,0.0,1688398.0,1687322.0,1689314.0,1687322.0,1688115.0,1689322.0,1690315.0,3527.0,534.0,793.0,993.0,1992.0,-1689322.0,0.0,0.0,0.0,1.0,0.0,0.0,0.0,-0.19730733194140657,7.888831745516879,0.4603837745299434,-0.2423072497526026,1688374.0,1688460.0,86.0,335.0506625038506,8.11661381707946,9.048952177322334,0.08668292063931791,259.0,0.10770014969844481,1.0,-2.8073025649908683,-2.6688412794179524,0.6923064278645789,0.6265373172174447,1689229.0,1689250.0,21.0,39.29851214573435,0.15328764959323865,0.200768864080729,0.4434483364197335,0.8097835725701723
112,1720.032197,3.7494484,2,13,2,2,1,1,3,1,22.16346154,n/a,n/a,1690321.0,1694072.0,0.0,0.0,0.0,1692304.0,1691080.0,1693072.0,1691080.0,1691871.0,1693079.0,1694072.0,3751.0,759.0,791.0,993.0,1992.0,-1693079.0,0.0,0.0,0.0,1.0,0.0,0.0,0.0,-0.10730749631901051,10.696134310507743,0.2596149104492171,-0.6957679600039025,1692269.0,1692349.0,80.0,475.0044656413737,10.845603316673875,11.938459020320263,0.08820374164999474,398.0,0.1127384835781572,1.0,0.0692306427864579,-0.588460463684892,0.4292299852760381,0.5953835279635394,1693511.0,1693533.0,22.0,66.56390197330714,0.6783543257613354,0.6864053270745349,-2.8941387479933116,2.8341951804669714
113,1723.789964,3.5078486,2,14,2,1,2,1,2,1,22.16346154,n/a,n/a,1694079.0,1697588.0,0.0,0.0,0.0,1695588.0,1694596.0,1696589.0,1694596.0,1695188.0,1696596.0,1697589.0,3509.0,517.0,592.0,993.0,1993.0,-1696596.0,0.0,0.0,0.0,1.0,0.0,0.0,0.0,-0.28730716756379865,-10.84844172463795,0.6369219136354117,0.3599993424895802,1695569.0,1695633.0,64.0,561.0008264632476,10.564764514320036,11.366495681097003,3.1153777492104515,381.0,3.094371685445817,1.0,-0.28730716756379865,-10.84844172463795,0.6369219136354117,0.3599993424895802,1695569.0,1695633.0,64.0,561.0008264632476,10.564764514320036,11.366495681097003,3.1153777492104515,3.094371685445817
114,1727.306144,3.541177,2,15,2,1,2,1,2,2,22.16346154,n/a,n/a,1697595.0,1701138.0,0.0,0.0,0.0,1699072.0,1698145.0,1700138.0,1698145.0,1698738.0,1700145.0,1701138.0,3543.0,550.0,593.0,993.0,1993.0,-1700145.0,0.0,0.0,0.0,1.0,0.0,0.0,0.0,-0.1349997534335921,-10.789595678269464,0.45346071025129997,0.6057681243815065,1699052.0,1699117.0,65.0,639.2611025607922,10.655684486222748,11.610980883141938,-3.1272986304321986,314.0,3.11386340738219,1.0,-10.744595760458264,-10.471134721451756,0.5607682065703105,0.5192298208984342,1699125.0,1699145.0,20.0,34.634546788431344,0.2765978621369738,0.2892813820226486,0.1507463811204277,2.774418819771577
115,1730.85564,3.5078472,2,16,2,1,2,2,1,2,22.16346154,n/a,n/a,1701145.0,1704654.0,0.0,0.0,0.0,1702588.0,1701661.0,1703654.0,1701661.0,1702054.0,1703661.0,1704654.0,3509.0,516.0,393.0,993.0,1993.0,-1703661.0,0.0,0.0,0.0,1.0,0.0,0.0,0.0,-0.08307677134374868,-11.11151816722649,0.45346071025129997,0.044999917811196055,1702563.0,1702644.0,81.0,657.6951550344905,11.036002892414487,12.323679128918613,3.104572537715863,509.0,3.078070013926864,1.0,-0.08307677134374868,-11.11151816722649,0.45346071025129997,0.044999917811196055,1702563.0,1702644.0,81.0,657.6951550344905,11.036002892414487,12.323679128918613,3.104572537715863,3.078070013926864
116,1734.371956,3.5076991,2,17,2,1,2,1,4,1,22.16346154,n/a,n/a,1704661.0,1708170.0,0.0,0.0,0.0,1706454.0,1705177.0,1707171.0,1705177.0,1706170.0,1707177.0,1708171.0,3509.0,516.0,993.0,994.0,1994.0,-1707177.0,0.0,0.0,0.0,1.0,0.0,0.0,0.0,-0.2388457176132789,-10.107673846822852,0.6611526386106736,0.6334603814960881,1706440.0,1706503.0,63.0,635.7942451854816,9.868866981826343,11.016793044819767,3.1387866279836047,270.0,-3.1095382483334864,1.0,-9.969212561249936,-9.87921272562754,0.5676912708489539,0.6715372350286407,1706528.0,1706548.0,20.0,23.191978305804987,0.1374189022240649,0.16672946657274249,-0.8567056281827343,-0.7266423406817119
117,1737.8881,3.5077165,2,18,2,2,1,1,2,1,22.16346154,n/a,n/a,1708177.0,1711687.0,0.0,0.0,0.0,1709693.0,1708693.0,1710686.0,1708693.0,1709287.0,1710693.0,1711687.0,3510.0,516.0,594.0,994.0,1993.0,-1710693.0,0.0,0.0,0.0,1.0,0.0,0.0,0.0,0.2423072497526026,10.498826978566337,0.08653830348307236,-0.07269217492578157,1709676.0,1709742.0,66.0,486.45612051843904,10.25775566548549,11.893744843416043,0.01552355885942686,389.0,0.04163046302661942,0.0,0.0,0.0,0.0,0.0,0.0,0.0,0.0,0.0,0.0,0.0,0.0,0.0
118,1741.404153,3.5078353,2,19,2,2,2,2,3,1,22.16346154,n/a,n/a,1711693.0,1715203.0,0.0,0.0,0.0,1713303.0,1712210.0,1714202.0,1712210.0,1713003.0,1714209.0,1715203.0,3510.0,517.0,793.0,994.0,1992.0,-1714209.0,0.0,0.0,0.0,1.0,0.0,0.0,0.0,0.6299988493567683,10.848441724637954,0.08653830348307236,0.10730749631901051,1713278.0,1713356.0,78.0,464.4451616725424,10.218463982162675,11.850847359525172,-0.0020325175263356914,275.0,-0.038857951642582524,1.0,0.6299988493567683,10.848441724637954,0.08653830348307236,0.10730749631901051,1713278.0,1713356.0,78.0,464.4451616725424,10.218463982162675,11.850847359525172,-0.0020325175263356914,-0.038857951642582524
119,1744.920323,3.5078139,2,20,2,2,2,1,5,1,22.16346154,n/a,n/a,1715209.0,1718718.0,0.0,0.0,0.0,1717159.0,1715726.0,1717719.0,1715726.0,1716919.0,1717725.0,1718718.0,3509.0,517.0,1193.0,993.0,1993.0,-1717725.0,0.0,0.0,0.0,1.0,0.0,0.0,0.0,0.38769159960416577,10.561134557074148,0.498460628062496,0.6126911886601539,1717145.0,1717212.0,67.0,409.79376817151586,10.174084245270924,11.330162081399356,-0.011227837114922489,226.0,-0.036364274455455675,0.0,0.0,0.0,0.0,0.0,0.0,0.0,0.0,0.0,0.0,0.0,0.0,0.0
120,1748.436469,3.5079744,2,21,2,2,1,1,4,2,22.16346154,n/a,n/a,1718725.0,1722235.0,0.0,0.0,0.0,1720658.0,1719242.0,1721235.0,1719242.0,1720235.0,1721242.0,1722236.0,3510.0,517.0,993.0,994.0,1993.0,-1721242.0,0.0,0.0,0.0,1.0,0.0,0.0,0.0,-0.03461532139322895,11.412671463347584,0.5053836923411433,-0.3807685353255184,1720643.0,1720721.0,78.0,429.14080123575707,11.481534762508897,13.21294567585089,0.07725747404660575,408.0,0.09182209819996248,1.0,11.523440491805918,11.405748399068937,-0.40153772816145655,-0.4949990959231723,1720740.0,1720763.0,23.0,29.777225384778735,0.15028791021469742,0.17667383331390077,2.47044881815381,2.5372871467235725
121,1751.952658,3.5078424,2,22,2,1,1,1,5,2,22.16346154,n/a,n/a,1722241.0,1725751.0,0.0,0.0,0.0,1724191.0,1722758.0,1724751.0,1722758.0,1723952.0,1724758.0,1725751.0,3510.0,517.0,1194.0,993.0,1993.0,-1724758.0,0.0,0.0,0.0,1.0,0.0,0.0,0.0,0.0,-9.969212561249936,0.373845471046871,-0.8065369884622328,1724176.0,1724251.0,75.0,611.8706167628603,10.038849627427451,11.183915181307826,3.023738572550819,224.0,3.0009211958507485,1.0,-10.820749467523369,-33.26532385889301,-0.7511524742330696,18.726888873736858,1724733.0,1724781.0,48.0,12583.026161273174,29.717890476326755,38.90797063127222,-2.426838852340847,-2.3025070777540693
122,1755.468832,3.5078368,2,23,2,2,1,1,4,2,22.16346154,n/a,n/a,1725758.0,1729267.0,0.0,0.0,0.0,1727534.0,1726274.0,1728268.0,1726274.0,1727267.0,1728274.0,1729267.0,3509.0,516.0,993.0,993.0,1994.0,-1728274.0,0.0,0.0,0.0,1.0,0.0,0.0,0.0,-0.21115346049869735,10.228827471699153,0.5503836101523394,-0.5053836923411433,1727503.0,1727592.0,89.0,465.79763814337707,10.493228600467496,11.845128298293124,0.10078468682183533,236.0,0.11833795827493952,1.0,0.6749987671679644,0.30461482826041314,0.6888448957252552,0.6680757028893171,1728780.0,1728799.0,19.0,49.82950025578238,0.37096579568974963,0.3942197301351155,3.0855765500466124,-2.792071462599733
123,1758.984999,3.5079312,2,24,2,1,1,1,2,2,22.16346154,n/a,n/a,1729274.0,1732783.0,0.0,0.0,0.0,1730700.0,1729790.0,1731784.0,1729790.0,1730384.0,1731790.0,1732784.0,3509.0,516.0,594.0,994.0,1994.0,-1731790.0,0.0,0.0,0.0,1.0,0.0,0.0,0.0,-0.2769225711458316,-10.370750289411392,0.6438449779140591,0.328845553235675,1730677.0,1730747.0,70.0,671.6571685882747,10.098741636638392,11.265540792059179,3.1103956453364203,293.0,3.089025741588837,1.0,0.5157682887591105,-0.10038443204036315,0.2769225711458316,0.22499958905598813,1732483.0,1732508.0,25.0,52.07020898808195,0.618336616591397,0.6260303131751668,3.057521621876318,-2.9637173905837138
124,1762.517828,3.5078076,2,25,2,1,1,2,1,2,22.16346154,n/a,n/a,1732808.0,1736316.0,0.0,0.0,0.0,1734142.0,1733325.0,1735316.0,1733325.0,1733715.0,1735323.0,1736316.0,3508.0,517.0,390.0,993.0,1991.0,-1735323.0,0.0,0.0,0.0,1.0,0.0,0.0,0.0,-0.14538434985156315,-10.841518660359307,0.33576861751432235,0.5192298208984342,1734128.0,1734216.0,88.0,690.7279485620091,10.697707567585129,12.713987018044609,-3.1244422317521523,413.0,-3.095291617495213,0.0,0.0,0.0,0.0,0.0,0.0,0.0,0.0,0.0,0.0,0.0,0.0,0.0
125,1766.033983,3.5078461,2,26,2,1,1,2,2,1,22.16346154,n/a,n/a,1736323.0,1739832.0,0.0,0.0,0.0,1737789.0,1736839.0,1738832.0,1736839.0,1737432.0,1738839.0,1739832.0,3509.0,516.0,593.0,993.0,1993.0,-1738839.0,0.0,0.0,0.0,1.0,0.0,0.0,0.0,0.10038443204036315,-10.031520139757747,0.6403834457747355,0.8169215848802038,1737771.0,1737833.0,62.0,627.5575217159651,10.133442453903918,11.561586264859773,-3.124170432947001,339.0,-3.099065118970009,1.0,-10.03498167189707,-9.931135707717383,0.8134600527408802,0.7165371528398408,1737838.0,1737859.0,21.0,36.364397835569385,0.14204940267961608,0.23408251179639233,0.7509290623979322,-0.6701220374265057
126,1769.550156,3.4994751,2,27,2,2,1,1,4,1,22.16346154,n/a,n/a,1739839.0,1743340.0,0.0,0.0,0.0,1741632.0,1740349.0,1742340.0,1740349.0,1741339.0,1742347.0,1743340.0,3501.0,510.0,990.0,993.0,1991.0,-1742347.0,0.0,0.0,0.0,1.0,0.0,0.0,0.0,-0.14192281771223947,8.785368569601504,0.43269151741536177,-0.23538418547395523,1741614.0,1741683.0,69.0,486.4615941820943,8.95225427804624,10.451112500326131,0.07469597491608171,275.0,0.08622186907884419,0.0,0.0,0.0,0.0,0.0,0.0,0.0,0.0,0.0,0.0,0.0,0.0,0.0
127,1773.057968,3.5911703,2,28,2,1,1,2,2,2,22.16346154,n/a,n/a,1743347.0,1746939.0,0.0,0.0,0.0,1744880.0,1743947.0,1745940.0,1743947.0,1744540.0,1745946.0,1746940.0,3592.0,600.0,593.0,994.0,1993.0,-1745946.0,0.0,0.0,0.0,1.0,0.0,0.0,0.0,0.1626920105481776,-9.969212561249936,0.6299988493567683,0.28038410328515523,1744864.0,1744934.0,70.0,713.8225209267878,10.137934736557254,12.00574375463439,3.1071000187486253,324.0,3.0977535157039613,1.0,-33.26532385889301,0.588460463684892,18.726888873736858,0.8584599705520762,1745459.0,1745515.0,56.0,13658.053147454566,38.28001390318179,51.963757351032626,0.4856487506044524,0.504025174480757
128,1776.65747,3.5078038,2,29,2,1,2,1,2,1,22.16346154,n/a,n/a,1746946.0,1750456.0,0.0,0.0,0.0,1748429.0,1747463.0,1749455.0,1747463.0,1748056.0,1749462.0,1750456.0,3510.0,517.0,593.0,994.0,1992.0,-1749462.0,0.0,0.0,0.0,1.0,0.0,0.0,0.0,0.031153789253905263,-9.848058936373635,0.010384596417967108,0.22499958905598813,1748410.0,1748473.0,63.0,724.0759826503235,9.88154358758115,12.601593533061417,-3.1198721737058053,354.0,3.1047758724019587,1.0,0.031153789253905263,-9.848058936373635,0.010384596417967108,0.22499958905598813,1748410.0,1748473.0,63.0,724.0759826503235,9.88154358758115,12.601593533061417,-3.1198721737058053,3.1047758724019587
129,1780.173625,3.507848,2,30,2,1,2,2,2,1,22.16346154,n/a,n/a,1750462.0,1753972.0,0.0,0.0,0.0,1751888.0,1750979.0,1752972.0,1750979.0,1751572.0,1752979.0,1753972.0,3510.0,517.0,593.0,993.0,1993.0,-1752979.0,0.0,0.0,0.0,1.0,0.0,0.0,0.0,0.010384596417967108,-9.719982247218686,0.4361530495546855,0.6784602993072881,1751871.0,1751942.0,71.0,626.046528777592,9.733383364227786,11.366614274464757,-3.116695629057754,299.0,-3.1010784130719053,1.0,-0.5676912708489539,0.7269217492578078,0.8099985206015565,0.43269151741536177,1752666.0,1752716.0,50.0,218.90903066977674,1.3484744886290203,2.0025554301100845,0.28358874931800143,-0.260491045572542
130,1783.689802,3.5078356,2,31,2,2,1,2,5,2,22.16346154,n/a,n/a,1753978.0,1757487.0,0.0,0.0,0.0,1755895.0,1754495.0,1756488.0,1754495.0,1755688.0,1756495.0,1757487.0,3509.0,517.0,1193.0,992.0,1993.0,-1756495.0,0.0,0.0,0.0,1.0,0.0,0.0,0.0,0.28384563542447894,10.39498101438665,0.062307578507810525,-0.5919219958242157,1755882.0,1755964.0,82.0,462.12030258139623,10.132278864482123,11.23767736434467,0.06461379847934193,194.0,0.08759224107017873,0.0,0.0,0.0,0.0,0.0,0.0,0.0,0.0,0.0,0.0,0.0,0.0,0.0
131,1787.205972,3.507849,2,32,2,2,1,1,1,2,22.16346154,n/a,n/a,1757494.0,1761004.0,0.0,0.0,0.0,1758804.0,1758011.0,1760004.0,1758011.0,1758404.0,1760011.0,1761004.0,3510.0,517.0,393.0,993.0,1993.0,-1760011.0,0.0,0.0,0.0,1.0,0.0,0.0,0.0,0.12461515701562499,11.08728744225123,-0.006923064278647363,0.4223069209973947,1758788.0,1758856.0,68.0,512.3307944734855,10.971072053985102,12.53545964395655,-0.03913378385771206,384.0,-0.043091053737397036,1.0,0.38769159960416577,-0.19384579980208289,0.4846144995052052,0.5711528029882775,1760099.0,1760132.0,33.0,68.69976212501167,0.5879410045896706,0.7224574997729551,-2.9938671887144954,-2.819842099193151
132,1790.722311,3.5076589,2,33,2,2,1,1,3,2,22.16346154,n/a,n/a,1761011.0,1764520.0,0.0,0.0,0.0,1762604.0,1761527.0,1763520.0,1761527.0,1762320.0,1763527.0,1764520.0,3509.0,516.0,793.0,993.0,1993.0,-1763527.0,0.0,0.0,0.0,1.0,0.0,0.0,0.0,0.03807685353255263,10.304981178764258,0.23538418547395523,-0.08653830348307236,1762585.0,1762657.0,72.0,487.9662268038107,10.271950083229465,11.29903954954124,0.0313450910478995,265.0,0.05057034393592463,1.0,-33.26532385889301,0.062307578507810525,18.726888873736858,0.5538451422916632,1763277.0,1763322.0,45.0,10107.657332745739,37.960381132073046,42.16714503468528,0.4992157249412427,2.481672659107687
133,1794.238307,3.507833,2,34,2,2,2,1,2,2,22.16346154,n/a,n/a,1764527.0,1768036.0,0.0,0.0,0.0,1766020.0,1765043.0,1767037.0,1765044.0,1765636.0,1767043.0,1768036.0,3509.0,517.0,592.0,993.0,1994.0,-1767043.0,0.0,0.0,0.0,1.0,0.0,0.0,0.0,0.14192281771223947,9.567674833088484,0.031153789253905263,0.017307660696614473,1766001.0,1766085.0,84.0,494.57058955437435,9.42576218513099,10.596932681648111,0.0014689669933335738,365.0,0.046728548708039136,1.0,0.14192281771223947,9.567674833088484,0.031153789253905263,0.017307660696614473,1766001.0,1766085.0,84.0,494.57058955437435,9.42576218513099,10.596932681648111,0.0014689669933335738,0.046728548708039136
134,1797.754474,3.5078445,2,35,2,1,1,1,5,1,22.16346154,n/a,n/a,1768043.0,1771553.0,0.0,0.0,0.0,1769969.0,1768560.0,1770553.0,1768560.0,1769752.0,1770559.0,1771553.0,3510.0,517.0,1192.0,994.0,1993.0,-1770559.0,0.0,0.0,0.0,1.0,0.0,0.0,0.0,0.02769225711458158,-10.484980850009046,0.03807685353255263,-0.12461515701562499,1769954.0,1770025.0,71.0,587.3091698776145,10.513931926141455,11.81030988715396,3.126118090413263,202.0,3.1005479562101934,1.0,0.6749987671679644,1.1734593952304604,0.5849989315455684,0.48115296736588153,1770586.0,1770610.0,24.0,41.075065390387024,0.5091630210501021,0.48546677049880643,0.2053953891897677,-0.1792157447769016
135,1801.270654,3.5661463,2,36,2,2,1,2,1,2,22.16346154,n/a,n/a,1771559.0,1775127.0,0.0,0.0,0.0,1773009.0,1772135.0,1774127.0,1772135.0,1772526.0,1774134.0,1775127.0,3568.0,576.0,391.0,993.0,1992.0,-1774134.0,0.0,0.0,0.0,1.0,0.0,0.0,0.0,-0.11769209273697762,10.502288510705664,0.16615354268749735,0.5746143351276013,1772994.0,1773065.0,71.0,444.715206451186,10.627832715867275,12.052585674494585,-0.038442590021188196,468.0,-0.047118635126453944,1.0,-0.6542295743320262,-0.7373063456757749,0.48115296736588153,0.7892293277656184,1773731.0,1773750.0,19.0,27.02311624893942,0.3190811711368285,0.3197001822502662,-1.8341939593403955,-1.9130919352249398
136,1804.845136,3.5078361,2,37,2,2,1,2,2,2,22.16346154,n/a,n/a,1775134.0,1778643.0,0.0,0.0,0.0,1776600.0,1775650.0,1777644.0,1775650.0,1776243.0,1777650.0,1778643.0,3509.0,516.0,593.0,993.0,1994.0,-1777650.0,0.0,0.0,0.0,1.0,0.0,0.0,0.0,-0.1211536248763013,9.77190522930853,0.34961474607161314,-0.08999983562239604,1776583.0,1776642.0,59.0,496.850793178353,9.902821540995419,12.204565634366528,0.044407455127715725,340.0,0.046247522283589124,0.0,0.0,0.0,0.0,0.0,0.0,0.0,0.0,0.0,0.0,0.0,0.0,0.0
137,1808.361302,3.5078329,2,38,2,2,1,1,1,2,22.16346154,n/a,n/a,1778650.0,1782159.0,0.0,0.0,0.0,1779877.0,1779166.0,1781159.0,1779166.0,1779560.0,1781166.0,1782159.0,3509.0,516.0,394.0,993.0,1993.0,-1781166.0,0.0,0.0,0.0,1.0,0.0,0.0,0.0,-0.09692289990103947,10.498826978566337,0.22153805691666445,0.6611526386106736,1779863.0,1779935.0,72.0,503.261551026014,10.604865697757772,11.761302616416165,-0.04146592706417168,303.0,-0.0580126625200144,1.0,-0.09692289990103947,10.498826978566337,0.22153805691666445,0.6611526386106736,1779863.0,1779935.0,72.0,503.261551026014,10.604865697757772,11.761302616416165,-0.04146592706417168,-0.0580126625200144
138,1811.877451,3.5078637,2,39,2,1,1,2,3,2,22.16346154,n/a,n/a,1782166.0,1785676.0,0.0,0.0,0.0,1783793.0,1782683.0,1784675.0,1782683.0,1783476.0,1784682.0,1785676.0,3510.0,517.0,793.0,994.0,1992.0,-1784682.0,0.0,0.0,0.0,1.0,0.0,0.0,0.0,-0.10730749631901051,-10.40536561080462,0.3253840210963513,0.3253840210963513,1783769.0,1783839.0,70.0,585.0629356651767,10.298058114485611,11.835437516949783,3.141592653589793,293.0,3.1158522896745438,0.0,0.0,0.0,0.0,0.0,0.0,0.0,0.0,0.0,0.0,0.0,0.0,0.0
139,1815.393647,3.7327955,2,40,2,1,1,1,5,2,22.16346154,n/a,n/a,1785682.0,1789417.0,0.0,0.0,0.0,1787859.0,1786425.0,1788416.0,1786425.0,1787615.0,1788423.0,1789417.0,3735.0,743.0,1190.0,994.0,1991.0,-1788423.0,0.0,0.0,0.0,1.0,0.0,0.0,0.0,-0.16961507482682103,-9.934597239856707,0.8065369884622328,-0.05884604636849078,1787839.0,1787900.0,61.0,624.6776226751529,9.803252749997045,11.14639202552178,3.0532025109009067,224.0,3.029872296220532,1.0,-11.644594116682216,-11.0976720386692,-0.08653830348307236,-0.10038443204036315,1788351.0,1788370.0,19.0,50.66741919639041,0.5470973173888721,0.5400544841567848,0.025311049142846945,0.16093373925617918
140,1819.134873,3.6910247,2,41,2,2,2,2,4,1,22.16346154,n/a,n/a,1789423.0,1793116.0,0.0,0.0,0.0,1791483.0,1790123.0,1792116.0,1790123.0,1791116.0,1792123.0,1793116.0,3693.0,700.0,993.0,993.0,1993.0,-1792123.0,0.0,0.0,0.0,1.0,0.0,0.0,0.0,0.044999917811196055,10.865749385334569,0.27346103900650787,0.7892293277656184,1791465.0,1791551.0,86.0,455.41992106549765,10.833034476387345,12.090458365406334,-0.04762869944687343,349.0,0.046684312801061834,1.0,1.1146133488619736,1.2323054415989512,1.0730749631900973,0.9796135954283796,1792331.0,1792355.0,24.0,29.17309336326957,0.15028791021469556,0.2150611781355293,0.67114383543601,0.9917220574271678
141,1822.834229,3.5078167,2,42,2,1,2,2,2,2,22.16346154,n/a,n/a,1793123.0,1796632.0,0.0,0.0,0.0,1794583.0,1793639.0,1795632.0,1793639.0,1794233.0,1795639.0,1796632.0,3509.0,516.0,594.0,993.0,1993.0,-1795639.0,0.0,0.0,0.0,1.0,0.0,0.0,0.0,-0.05884604636849078,-10.713441971204357,0.6265373172174447,0.30461482826041314,1794551.0,1794637.0,86.0,642.1183586200337,10.659458166831246,11.966356394806207,3.111387417970707,318.0,3.0880517524286804,1.0,-10.242673600256444,-33.26532385889301,0.28038410328515523,18.726888873736858,1794895.0,1794948.0,53.0,12510.45934729035,29.501117998777538,40.443714638498356,-2.466100396706705,-2.2854475731328865
142,1826.350479,3.5077082,2,43,2,2,1,2,5,2,22.16346154,n/a,n/a,1796639.0,1800148.0,0.0,0.0,0.0,1798582.0,1797155.0,1799148.0,1797155.0,1798348.0,1799155.0,1800148.0,3509.0,516.0,1193.0,993.0,1993.0,-1799155.0,0.0,0.0,0.0,1.0,0.0,0.0,0.0,-0.26653797472786445,10.086904653986917,0.6092296565208302,-0.4776914352265578,1798561.0,1798632.0,71.0,489.91822816249265,10.410339654678602,11.639543238573994,0.10459846962139714,213.0,0.11325171763484367,1.0,-33.26532385889301,-1.2426900380169184,18.726888873736858,0.2423072497526026,1799165.0,1799229.0,64.0,12375.16760606037,36.97470533539995,44.370091254961245,0.523512239526797,0.7567084657307699
143,1829.866521,3.5078711,2,44,2,2,2,1,2,2,22.16346154,n/a,n/a,1800155.0,1803664.0,0.0,0.0,0.0,1801765.0,1800672.0,1802665.0,1800672.0,1801264.0,1802671.0,1803664.0,3509.0,517.0,592.0,993.0,1993.0,-1802671.0,0.0,0.0,0.0,1.0,0.0,0.0,0.0,-0.1384612855729158,10.100750782544205,0.7546140063723894,1.0384596417968683,1801747.0,1801821.0,74.0,440.44699922118537,10.243145616490317,11.500709110609154,-0.027714335570678768,483.0,-0.045464280391910424,0.0,0.0,0.0,0.0,0.0,0.0,0.0,0.0,0.0,0.0,0.0,0.0,0.0
144,1833.382738,3.5078187,2,45,2,2,2,1,3,2,22.16346154,n/a,n/a,1803671.0,1807180.0,0.0,0.0,0.0,1805254.0,1804188.0,1806181.0,1804188.0,1804980.0,1806187.0,1807180.0,3509.0,517.0,792.0,993.0,1993.0,-1806187.0,0.0,0.0,0.0,1.0,0.0,0.0,0.0,-0.33230708537499865,9.571136365227803,0.623075785078121,0.4430761138333289,1805240.0,1805310.0,70.0,513.7146428017138,9.905079104224042,10.996114632727418,0.018173462115359102,260.0,0.040934902231953015,0.0,0.0,0.0,0.0,0.0,0.0,0.0,0.0,0.0,0.0,0.0,0.0,0.0
145,1836.898879,3.5078353,2,46,2,1,1,2,5,1,22.16346154,n/a,n/a,1807187.0,1810697.0,0.0,0.0,0.0,1809163.0,1807704.0,1809697.0,1807704.0,1808897.0,1809703.0,1810697.0,3510.0,517.0,1193.0,994.0,1993.0,-1809703.0,0.0,0.0,0.0,1.0,0.0,0.0,0.0,-0.1869227355234355,-10.436519400058527,0.5607682065703105,-0.19384579980208289,1809139.0,1809214.0,75.0,583.3660228722533,10.27733788897992,11.194404413534954,3.0681014717918367,242.0,3.048693128476379,1.0,-0.1869227355234355,-10.436519400058527,0.5607682065703105,-0.19384579980208289,1809139.0,1809214.0,75.0,583.3660228722533,10.27733788897992,11.194404413534954,3.0681014717918367,3.048693128476379
146,1840.41505,3.5078246,2,47,2,2,2,2,4,2,22.16346154,n/a,n/a,1810703.0,1814213.0,0.0,0.0,0.0,1812647.0,1811220.0,1813212.0,1811220.0,1812213.0,1813220.0,1814213.0,3510.0,517.0,993.0,993.0,1992.0,-1813220.0,0.0,0.0,0.0,1.0,0.0,0.0,0.0,-0.079615239204425,9.429213547515568,0.23538418547395523,0.7996139241835893,1812632.0,1812695.0,63.0,505.75368267945544,9.52555405701942,10.801061394636104,-0.059267964705003895,419.0,-0.058360617888451975,1.0,11.738055484443931,11.717286291607998,0.917306016920567,0.882690695527338,1813051.0,1813072.0,21.0,21.27583296589053,0.04036805477370386,0.08865848135980778,2.111215827065414,0.8960553845713024
147,1843.931223,3.5078411,2,48,2,2,1,1,4,1,22.16346154,n/a,n/a,1814219.0,1817729.0,0.0,0.0,0.0,1816096.0,1814736.0,1816729.0,1814736.0,1815729.0,1816736.0,1817729.0,3510.0,517.0,993.0,993.0,1993.0,-1816736.0,0.0,0.0,0.0,1.0,0.0,0.0,0.0,0.05884604636849078,10.073058525429623,0.12461515701562499,-0.21807652477734077,1816078.0,1816150.0,72.0,509.1192213775383,10.020074309332928,11.062088399012598,0.034207183771343165,349.0,0.06952390222295965,0.0,0.0,0.0,0.0,0.0,0.0,0.0,0.0,0.0,0.0,0.0,0.0,0.0
148,1847.447386,3.5078324,2,49,2,2,2,2,2,1,22.16346154,n/a,n/a,1817736.0,1821245.0,0.0,0.0,0.0,1819362.0,1818252.0,1820245.0,1818252.0,1818846.0,1820252.0,1821246.0,3509.0,516.0,594.0,994.0,1993.0,-1820252.0,0.0,0.0,0.0,1.0,0.0,0.0,0.0,0.1903842676627592,10.308442710903577,0.1730766069661447,0.5988450601028592,1819339.0,1819423.0,84.0,473.0764108223876,10.127012661023153,11.189800856713559,-0.04205524360735873,493.0,-0.040225967039120285,1.0,0.1903842676627592,10.308442710903577,0.1730766069661447,0.5988450601028592,1819339.0,1819423.0,84.0,473.0764108223876,10.127012661023153,11.189800856713559,-0.04205524360735873,-0.040225967039120285
149,1850.963555,3.5078315,2,50,2,1,1,1,3,1,22.16346154,n/a,n/a,1821252.0,1824761.0,0.0,0.0,0.0,1822935.0,1821768.0,1823761.0,1821768.0,1822562.0,1823768.0,1824761.0,3509.0,516.0,794.0,993.0,1993.0,-1823768.0,0.0,0.0,0.0,1.0,0.0,0.0,0.0,0.32192248895702763,-11.409209931208261,-0.020769192835938154,0.24923031403124998,1822918.0,1822991.0,73.0,633.3040468114427,11.734239114367902,13.00525311177884,-3.118581077412352,356.0,3.1083159937789078,0.0,0.0,0.0,0.0,0.0,0.0,0.0,0.0,0.0,0.0,0.0,0.0,0.0
150,1854.479841,3.5077454,2,51,2,2,2,1,3,1,22.16346154,n/a,n/a,1824768.0,1828277.0,0.0,0.0,0.0,1826511.0,1825285.0,1827278.0,1825285.0,1826077.0,1827284.0,1828277.0,3509.0,517.0,792.0,993.0,1993.0,-1827284.0,0.0,0.0,0.0,1.0,0.0,0.0,0.0,0.06576911064713421,10.429596335779879,0.1488458819908829,0.5642297387096302,1826486.0,1826556.0,70.0,458.42508577144724,10.372148210511902,11.885486529655083,-0.04005871913592429,409.0,0.045740668357849255,1.0,-0.2699995068671842,-0.30461482826041314,0.40153772816145655,0.5988450601028592,1827636.0,1827658.0,22.0,33.46645044295053,0.20032075207773997,0.20124575041547937,-1.7444675251364725,2.034443935795694
151,1857.995915,3.5077993,2,52,2,2,1,2,2,1,22.16346154,n/a,n/a,1828284.0,1831793.0,0.0,0.0,0.0,1829977.0,1828801.0,1830794.0,1828801.0,1829394.0,1830800.0,1831793.0,3509.0,517.0,593.0,993.0,1993.0,-1830800.0,0.0,0.0,0.0,1.0,0.0,0.0,0.0,0.7961523920442657,10.166519893191342,-0.36692240676822757,-0.31499942467838415,1829956.0,1830030.0,74.0,474.4618083417543,9.370511357584622,10.696890443714734,-0.005541132796055571,562.0,0.04564368938053818,0.0,0.0,0.0,0.0,0.0,0.0,0.0,0.0,0.0,0.0,0.0,0.0,0.0
152,1861.512083,3.5078633,2,53,2,2,1,2,1,2,22.16346154,n/a,n/a,1831800.0,1835310.0,0.0,0.0,0.0,1833244.0,1832317.0,1834310.0,1832317.0,1832710.0,1834317.0,1835310.0,3510.0,517.0,393.0,993.0,1993.0,-1834317.0,0.0,0.0,0.0,0.0,0.0,0.0,1.0,-1.1803824595091077,11.256902517078053,0.1488458819908829,0.7684601349296841,1833361.0,1833448.0,87.0,436.81570124497154,12.45270972163431,13.808833975714588,-0.049777937916325427,651.0,-0.06019839833352616,0.0,0.0,0.0,0.0,0.0,0.0,0.0,0.0,0.0,0.0,0.0,0.0,0.0
153,1865.028273,3.5077922,2,54,2,1,1,2,3,1,22.16346154,n/a,n/a,1835316.0,1838826.0,0.0,0.0,0.0,1837150.0,1835833.0,1837825.0,1835833.0,1836626.0,1837833.0,1838826.0,3510.0,517.0,793.0,993.0,1992.0,-1837833.0,0.0,0.0,0.0,1.0,0.0,0.0,0.0,0.44999917811197626,-10.36728875727207,0.07269217492578157,-0.1730766069661447,1837134.0,1837207.0,73.0,628.3803849756176,10.820079508541417,12.117483726626563,3.118876561721991,508.0,3.096156402821921,1.0,0.44999917811197626,-10.36728875727207,0.07269217492578157,-0.1730766069661447,1837134.0,1837207.0,73.0,628.3803849756176,10.820079508541417,12.117483726626563,3.118876561721991,3.096156402821921
154,1868.544427,3.5078205,2,55,2,2,2,1,3,1,22.16346154,n/a,n/a,1838832.0,1842342.0,0.0,0.0,0.0,1840542.0,1839349.0,1841342.0,1839349.0,1840142.0,1841349.0,1842343.0,3510.0,517.0,793.0,994.0,1993.0,-1841349.0,0.0,0.0,0.0,1.0,0.0,0.0,0.0,-0.1211536248763013,10.585365282049409,0.65769110647135,0.6023065922421829,1840519.0,1840610.0,91.0,481.12979308144446,10.706662157216606,12.24616738613883,0.0051729250838209,377.0,0.05203337439379426,0.0,0.0,0.0,0.0,0.0,0.0,0.0,0.0,0.0,0.0,0.0,0.0,0.0
155,1872.060581,3.5079383,2,56,2,2,2,1,2,1,22.16346154,n/a,n/a,1842349.0,1845859.0,0.0,0.0,0.0,1843949.0,1842865.0,1844858.0,1842865.0,1843459.0,1844865.0,1845859.0,3510.0,516.0,594.0,994.0,1993.0,-1844865.0,0.0,0.0,0.0,1.0,0.0,0.0,0.0,0.27346103900650787,10.266904325231701,0.1765381391054684,0.6957679600039025,1843926.0,1844000.0,74.0,472.7005589189576,10.006923019685402,11.46209679080782,-0.0519103711318949,467.0,-0.07072651984677304,0.0,0.0,0.0,0.0,0.0,0.0,0.0,0.0,0.0,0.0,0.0,0.0,0.0
156,1875.576828,3.5077411,2,57,2,2,1,2,3,1,22.16346154,n/a,n/a,1845865.0,1849374.0,0.0,0.0,0.0,1847575.0,1846381.0,1848374.0,1846382.0,1847175.0,1848381.0,1849374.0,3509.0,517.0,793.0,993.0,1993.0,-1848381.0,0.0,0.0,0.0,1.0,0.0,0.0,0.0,0.5123067566197868,9.629982411596293,0.024230724975261835,-0.1107690284583342,1847550.0,1847621.0,71.0,478.01079555900714,9.118675028905153,10.59471170722062,0.014805296279417658,375.0,0.0333318805874071,1.0,0.5123067566197868,9.629982411596293,0.024230724975261835,-0.1107690284583342,1847550.0,1847621.0,71.0,478.01079555900714,9.118675028905153,10.59471170722062,0.014805296279417658,0.0333318805874071
157,1879.092902,3.5079197,2,58,2,1,2,2,2,2,22.16346154,n/a,n/a,1849381.0,1852890.0,0.0,0.0,0.0,1851074.0,1849898.0,1851891.0,1849898.0,1850490.0,1851897.0,1852890.0,3509.0,517.0,592.0,993.0,1993.0,-1851897.0,0.0,0.0,0.0,1.0,0.0,0.0,0.0,0.65769110647135,-10.77228801757285,-0.0034615321393236813,0.7892293277656184,1851059.0,1851123.0,64.0,649.2105860006686,11.457433463715295,12.572993790397865,-3.072351612881746,569.0,-3.0743651975499593,1.0,0.65769110647135,-10.77228801757285,-0.0034615321393236813,0.7892293277656184,1851059.0,1851123.0,64.0,649.2105860006686,11.457433463715295,12.572993790397865,-3.072351612881746,-3.0743651975499593
158,1882.609096,3.5078389,2,59,2,2,1,1,3,1,22.16346154,n/a,n/a,1852897.0,1856407.0,0.0,0.0,0.0,1854790.0,1853414.0,1855407.0,1853414.0,1854207.0,1855414.0,1856407.0,3510.0,517.0,793.0,993.0,1993.0,-1855414.0,0.0,0.0,0.0,1.0,0.0,0.0,0.0,0.0553845142291671,9.944981836274675,0.5192298208984342,-0.1384612855729158,1854770.0,1854838.0,68.0,521.4864514457943,9.911442517804417,11.284334094451596,0.06640554326384115,563.0,0.08907686300026615,1.0,13.361514057786373,13.378821718482987,-0.31499942467838415,-0.36692240676822757,1855072.0,1855093.0,21.0,31.15913066658852,0.05473162877067824,0.12765499779534062,1.2490457723982544,2.4329663814621196
159,1886.125271,3.5078329,2,60,2,1,1,1,4,2,22.16346154,n/a,n/a,1856413.0,1859923.0,0.0,0.0,0.0,1858330.0,1856930.0,1858923.0,1856930.0,1857923.0,1858930.0,1859923.0,3510.0,517.0,993.0,993.0,1993.0,-1858930.0,0.0,0.0,0.0,1.0,0.0,0.0,0.0,0.24576878189192627,-9.723443779358009,0.26653797472786445,0.09692289990103947,1858312.0,1858381.0,69.0,613.8518104185089,9.970655362863166,10.804402253346638,3.1245804060996654,389.0,3.095762036289408,1.0,0.24576878189192627,-9.723443779358009,0.26653797472786445,0.09692289990103947,1858312.0,1858381.0,69.0,613.8518104185089,9.970655362863166,10.804402253346638,3.1245804060996654,3.095762036289408
160,1889.641437,3.6328259,2,61,2,2,2,1,3,2,22.16346154,n/a,n/a,1859929.0,1863564.0,0.0,0.0,0.0,1861872.0,1860573.0,1862564.0,1860573.0,1861363.0,1862571.0,1863564.0,3635.0,644.0,790.0,993.0,1991.0,-1862571.0,0.0,0.0,0.0,1.0,0.0,0.0,0.0,0.079615239204425,9.633443943735614,0.17999967124479208,0.7615370706510368,1861851.0,1861917.0,66.0,433.47158206229375,9.571511305036017,10.61971714914663,-0.060794555874788755,488.0,0.06719694450863795,0.0,0.0,0.0,0.0,0.0,0.0,0.0,0.0,0.0,0.0,0.0,0.0,0.0
161,1893.282585,3.5078354,2,62,2,2,1,1,4,1,22.16346154,n/a,n/a,1863570.0,1867080.0,0.0,0.0,0.0,1865537.0,1864087.0,1866080.0,1864087.0,1865080.0,1866087.0,1867081.0,3510.0,517.0,993.0,994.0,1993.0,-1866087.0,0.0,0.0,0.0,1.0,0.0,0.0,0.0,-0.08999983562239604,9.190367829902284,0.4707683709479144,-0.22499958905598813,1865505.0,1865583.0,78.0,458.6544598341474,9.306412684890136,10.434797676799878,0.07483202949355093,425.0,0.09468437292143848,1.0,-0.08999983562239604,9.190367829902284,0.4707683709479144,-0.22499958905598813,1865505.0,1865583.0,78.0,458.6544598341474,9.306412684890136,10.434797676799878,0.07483202949355093,0.09468437292143848
162,1896.798756,3.5078468,2,63,2,2,2,1,5,1,22.16346154,n/a,n/a,1867087.0,1870596.0,0.0,0.0,0.0,1869103.0,1867603.0,1869596.0,1867603.0,1868797.0,1869603.0,1870596.0,3509.0,516.0,1194.0,993.0,1993.0,-1869603.0,0.0,0.0,0.0,1.0,0.0,0.0,0.0,0.09346136776171972,10.27036585737103,0.3461532139322894,1.1526902023945242,1869086.0,1869156.0,70.0,413.94908977180677,10.208814177189623,11.040220177709346,-0.07908640095892956,289.0,-0.08821865212758623,1.0,0.6438449779140591,0.702691024282546,1.0523057703541592,0.8965368240846289,1869781.0,1869800.0,19.0,42.257322998554585,0.16651372854849505,0.20844057769344312,1.209592571301228,0.9505468408120784
163,1900.314938,3.5078358,2,64,2,1,2,2,1,2,22.16346154,n/a,n/a,1870603.0,1874112.0,0.0,0.0,0.0,1872129.0,1871120.0,1873112.0,1871120.0,1871512.0,1873119.0,1874112.0,3509.0,517.0,392.0,993.0,1992.0,-1873119.0,0.0,0.0,0.0,0.0,0.0,0.0,1.0,-0.03461532139322895,-10.401904078665298,0.3807685353255184,0.5399990137343723,1872114.0,1872186.0,72.0,650.9408912623622,10.368511490176116,11.428511390499716,-3.126234929573789,602.0,3.11069340026783,0.0,0.0,0.0,0.0,0.0,0.0,0.0,0.0,0.0,0.0,0.0,0.0,0.0
164,1903.831092,3.507837,2,65,2,1,2,2,4,2,22.16346154,n/a,n/a,1874119.0,1877628.0,0.0,0.0,0.0,1876095.0,1874636.0,1876629.0,1874636.0,1875628.0,1876635.0,1877628.0,3509.0,517.0,992.0,993.0,1993.0,-1876635.0,0.0,0.0,0.0,1.0,0.0,0.0,0.0,-0.048461449950519736,-11.834978384344975,0.41538385671874734,0.6923064278645789,1876074.0,1876115.0,41.0,621.1349988965798,11.789769614168772,11.67377477878094,-3.118102114779917,446.0,-3.1036287069199364,1.0,-0.048461449950519736,-11.834978384344975,0.41538385671874734,0.6923064278645789,1876074.0,1876115.0,41.0,621.1349988965798,11.789769614168772,11.67377477878094,-3.118102114779917,-3.1036287069199364
165,1907.347263,3.4995041,2,66,2,2,2,2,1,2,22.16346154,n/a,n/a,1877635.0,1881137.0,0.0,0.0,0.0,1879329.0,1878145.0,1880136.0,1878145.0,1878535.0,1880143.0,1881137.0,3502.0,510.0,390.0,994.0,1991.0,-1880143.0,0.0,0.0,0.0,0.0,0.0,0.0,1.0,-0.020769192835938154,9.529597979555927,0.294230231842446,0.588460463684892,1879317.0,1879383.0,66.0,479.0290944442509,9.554898458739906,10.709645356617068,-0.03079852219869102,782.0,0.04332453881393938,0.0,0.0,0.0,0.0,0.0,0.0,0.0,0.0,0.0,0.0,0.0,0.0,0.0
166,1910.855198,3.5078327,2,67,2,1,2,2,2,1,22.16346154,n/a,n/a,1881143.0,1884653.0,0.0,0.0,0.0,1882776.0,1881660.0,1883652.0,1881660.0,1882253.0,1883659.0,1884653.0,3510.0,517.0,593.0,994.0,1992.0,-1883659.0,0.0,0.0,0.0,1.0,0.0,0.0,0.0,0.4880760316445289,-9.706136118661394,0.5503836101523394,0.9207675490598907,1882755.0,1882838.0,83.0,664.07333669982,10.200938467986445,12.019126490807949,-3.1052758608020237,502.0,3.098667178486181,1.0,0.2769225711458316,0.19384579980208289,0.7753831992083275,0.6369219136354117,1883795.0,1883815.0,20.0,30.5496418070417,0.16147221909482148,0.1959361733422803,2.1112158270654766,-1.0121970114513406
167,1914.371265,3.6661449,2,68,2,1,1,2,2,1,22.16346154,n/a,n/a,1884659.0,1888327.0,0.0,0.0,0.0,1885718.0,1885336.0,1887327.0,1885336.0,1885927.0,1887334.0,1888327.0,3668.0,677.0,591.0,993.0,1991.0,-1887334.0,0.0,0.0,0.0,0.0,1.0,0.0,0.0,0.0,0.0,0.0,0.0,0.0,0.0,0.0,0.0,0.0,0.0,0.0,0.0,0.0,0.0,0.0,0.0,0.0,0.0,0.0,0.0,0.0,0.0,0.0,0.0,0.0,0.0
168,1918.045731,3.5078514,2,69,2,1,2,1,4,2,22.16346154,n/a,n/a,1888334.0,1891843.0,0.0,0.0,0.0,1890210.0,1888850.0,1890843.0,1888850.0,1889843.0,1890850.0,1891844.0,3509.0,516.0,993.0,994.0,1993.0,-1890850.0,0.0,0.0,0.0,1.0,0.0,0.0,0.0,0.19730733194140657,-9.719982247218686,0.6473065100533828,1.381151323589834,1890189.0,1890254.0,65.0,617.3089911487222,9.944403491777258,11.327054046549568,-3.067730757576617,346.0,-3.0623597336544406,1.0,-0.8757676312486907,-0.8792291633880144,0.8792291633880144,0.8342292455768183,1891619.0,1891638.0,19.0,22.440709404709573,0.04513285729671866,0.1378541865014726,1.6475682180646947,-2.4629301628414844
